time_ms,relative_alt_m,accel_x,accel_y,accel_z,gyro_x,gyro_y,gyro_z
4087,0.06,0.57,3.42,8.34,-0.17,0.06,0.21
4143,0.13,0.05,3.49,8.42,0.13,0.14,0.37
4195,0.07,-0.11,2.61,9.76,0.47,0.05,0.33
4242,0.11,-0.42,4.49,9.34,-0.02,-0.50,0.18
4289,0.17,0.16,3.24,8.17,-1.17,0.39,-0.08
4336,0.18,0.06,2.26,8.03,-0.21,0.12,-0.27
4383,0.15,0.14,3.10,8.03,0.42,0.20,-0.12
4431,0.13,0.04,3.13,9.11,0.48,0.19,0.03
4477,0.04,-0.27,3.61,9.63,-0.08,0.27,-0.08
4524,0.06,0.51,3.37,9.44,-0.25,-0.19,-0.23
4571,0.16,0.40,3.25,9.09,-0.36,0.06,0.06
4621,0.07,-0.41,3.42,8.78,-0.44,0.17,0.19
4676,0.14,-0.43,2.80,8.34,-0.37,0.31,-0.01
4729,0.12,-0.21,2.50,8.80,0.34,-0.09,-0.06
4776,0.05,-0.23,2.99,9.15,0.17,-0.02,0.13
4823,0.05,-0.61,2.91,9.46,-0.13,-0.12,0.07
4870,0.08,-0.62,3.26,8.88,-0.35,0.00,-0.16
4917,0.10,0.10,3.06,8.46,-0.11,0.08,-0.37
4963,0.10,0.33,3.02,9.02,0.24,0.06,0.00
5010,0.07,0.11,3.30,9.39,0.07,0.04,0.20
5057,0.05,-0.56,3.14,9.13,-0.29,0.06,0.20
5104,0.08,-0.52,2.62,8.91,-0.25,0.03,0.02
5151,0.03,-0.41,3.04,8.48,-0.16,-0.07,-0.09
5209,0.03,0.20,2.81,8.88,0.17,-0.05,-0.12
5261,0.03,0.16,3.00,9.07,0.26,-0.05,0.09
5307,0.05,-0.26,3.00,9.25,-0.19,-0.08,0.17
5354,0.10,-0.47,3.03,8.92,-0.34,0.08,-0.05
5401,0.09,-0.27,2.49,8.92,-0.05,0.02,-0.17
5448,0.01,-0.49,2.86,9.81,0.16,-0.26,-0.22
5495,-0.08,-0.13,3.51,9.50,-0.34,-0.21,-0.44
5543,-0.03,0.67,3.14,8.48,-0.69,0.01,-0.27
5590,-0.08,-0.10,2.15,8.29,-0.30,0.13,0.18
5637,0.03,-0.35,2.18,8.45,0.23,0.01,0.06
5684,-0.03,-0.23,2.71,8.63,0.33,-0.12,-0.10
5741,-0.04,0.35,2.86,9.22,0.01,0.04,-0.12
5793,-0.07,0.25,2.51,9.24,-0.14,0.10,0.06
5841,0.02,-0.03,2.32,9.16,0.05,0.06,0.07
5888,0.12,-0.02,2.89,9.33,0.27,-0.02,-0.09
5935,0.00,-0.17,3.26,9.55,-0.06,-0.10,0.03
5982,-0.03,-0.17,2.76,9.06,-0.41,-0.02,-0.03
6029,-0.03,-0.30,2.54,8.50,-0.22,0.04,-0.03
6076,-0.05,-0.11,2.66,8.32,0.06,0.06,-0.07
6123,0.03,-0.08,2.59,9.03,0.15,0.04,0.04
6170,0.05,-0.24,2.81,9.47,-0.10,0.02,0.07
6217,0.02,-0.11,2.68,9.43,-0.19,0.11,-0.10
6272,0.04,0.14,2.66,9.12,-0.05,0.02,-0.09
6326,-0.01,0.13,2.58,9.46,-0.24,-0.06,0.02
6374,0.03,0.42,2.62,9.83,-0.38,0.01,0.08
6421,-0.01,0.63,2.49,9.84,-0.34,-0.18,0.13
6468,0.02,0.45,2.13,9.91,-0.53,-0.09,0.34
6515,-0.02,1.23,1.96,10.83,-0.62,-0.16,0.38
6563,-0.03,0.61,1.57,10.84,-1.18,-0.20,0.67
6610,0.07,-0.12,1.02,9.95,-1.76,-0.03,0.37
6657,-0.01,0.55,-0.59,8.81,-1.24,-0.23,0.23
6705,0.14,0.36,-0.31,8.67,-0.42,-0.24,0.38
6752,0.11,0.39,-0.59,8.80,-0.56,0.04,0.48
6808,0.13,0.45,-1.53,8.76,-0.62,0.07,0.40
6860,0.20,1.54,-0.44,9.75,-0.05,-0.22,0.36
6911,0.20,2.69,-0.81,11.50,-0.74,-0.32,0.84
6958,0.23,1.26,-0.96,10.46,-2.39,0.93,1.53
7005,0.26,-1.06,-2.30,7.32,-2.02,0.54,1.30
7052,0.35,-1.23,-0.48,6.01,-0.98,-0.06,0.15
7099,0.35,0.64,-1.30,6.08,0.19,-0.38,-0.52
7146,0.45,1.62,-2.26,7.38,1.26,0.11,0.12
7193,0.44,4.43,-1.83,15.92,-2.88,1.18,1.13
7239,0.43,-1.20,-2.70,6.84,-2.45,-0.48,0.15
7285,0.34,5.40,-4.95,3.37,0.01,1.50,0.90
7339,0.33,-1.92,-4.24,10.89,0.85,3.78,2.25
7390,0.38,-4.53,-3.69,5.46,-0.29,-1.82,2.33
7435,0.31,-1.65,-5.99,7.27,-0.12,-0.03,-1.09
7483,0.28,-0.09,2.80,7.64,0.48,0.40,0.81
7529,0.39,-4.66,-3.38,10.30,-1.35,0.20,1.25
7574,0.41,-0.43,-2.43,6.48,0.10,-0.26,1.07
7619,0.47,-3.11,-6.63,9.15,-0.52,0.31,0.56
7665,0.44,-3.59,-7.39,6.78,0.10,-0.68,-1.34
7710,0.20,-1.39,-4.68,8.43,0.31,0.24,-0.58
7756,0.28,-2.38,-3.57,6.36,-0.14,-0.06,-0.29
7802,0.29,-0.15,-2.18,6.22,-0.41,0.28,-0.75
7856,0.28,-2.87,-3.51,9.09,-0.69,0.19,-0.18
7906,0.27,-2.22,-5.59,9.75,-0.41,0.20,-0.01
7952,0.20,-2.49,-4.67,8.36,-0.41,-0.30,-0.30
8000,0.12,-1.23,-3.86,7.44,-0.43,-0.17,-0.11
8045,0.11,-0.99,-4.01,7.68,-0.64,-0.01,0.07
8091,0.07,-2.24,-3.56,8.36,-1.43,-0.73,-0.41
8136,0.10,-0.44,-3.27,7.24,-1.86,-0.93,-0.21
8182,0.05,0.62,-5.88,4.05,-2.06,-1.97,-0.16
8228,-0.01,4.71,-9.28,1.46,-0.81,-0.46,-0.30
8273,-0.10,0.23,-11.88,5.50,0.57,1.17,-0.22
8319,-0.12,-4.00,-7.06,9.69,1.84,-0.74,-0.01
8372,-0.09,0.00,-7.40,6.65,-0.40,-1.54,-0.86
8423,-0.22,-0.29,-5.18,5.90,0.12,0.83,0.87
8468,-0.29,-1.15,-7.32,5.43,-0.81,0.62,0.56
8516,-0.30,-1.51,-6.20,8.49,0.01,-0.80,-0.36
8561,-0.35,1.71,-8.53,6.26,-0.64,-0.65,-0.41
8607,-0.36,1.06,-7.59,7.61,0.69,1.28,-0.43
8652,-0.35,1.70,-6.44,6.46,-0.45,-0.52,-0.03
8699,-0.30,0.57,-7.05,6.85,0.08,-0.40,-0.64
8744,-0.39,-0.03,-4.48,7.41,-0.65,-0.95,-0.77
8790,-0.43,3.14,-8.69,6.44,0.25,-0.77,-0.05
8835,-0.38,1.32,-7.07,6.97,0.91,1.30,0.10
8889,-0.31,1.80,-9.88,6.19,0.89,-0.46,0.27
8939,-0.33,-0.72,-3.64,6.66,-2.22,-1.54,-0.50
8984,-0.33,5.12,-8.59,2.86,0.19,-1.25,-0.95
9030,-0.37,-0.56,-5.43,9.93,-0.45,1.57,0.76
9078,-0.36,2.77,-6.19,6.34,-0.11,0.20,-0.39
9124,-0.41,2.82,-8.32,6.06,-0.02,-0.06,-0.23
9170,-0.36,1.43,-8.46,5.35,0.09,-0.63,-0.07
9215,-0.42,3.73,-7.82,6.34,0.18,0.03,-0.01
9261,-0.37,1.02,-3.41,6.68,1.36,0.39,1.01
9306,-0.36,2.98,-6.98,7.35,0.51,-1.46,0.56
9351,-0.37,3.54,-5.66,7.14,0.21,1.12,0.97
9405,-0.41,1.67,-5.71,7.57,-0.43,0.14,0.21
9455,-0.44,1.58,-7.98,8.67,-0.79,-0.42,0.26
9501,-0.44,2.00,-5.34,5.31,-0.37,0.46,0.02
9546,-0.45,0.87,-8.42,7.10,-0.22,1.71,0.62
9595,-0.48,-0.19,-6.67,4.44,-0.53,-0.85,0.45
9641,-0.48,-0.60,-7.71,7.05,-0.12,0.74,0.34
9686,-0.54,-0.49,-5.94,4.74,0.60,1.57,0.20
9732,-0.51,-1.53,-7.96,8.70,1.20,1.88,-0.31
9777,-0.45,-1.03,-8.81,4.84,-0.63,-0.70,0.22
9823,-0.44,-0.45,-6.73,6.36,0.12,-0.43,-0.17
9868,-0.35,-0.74,-6.62,7.64,-1.05,0.08,0.70
9922,-0.33,0.62,-5.23,7.36,-0.77,-0.84,0.70
9972,-0.28,-3.04,-9.82,4.29,0.07,-0.44,-0.39
10019,-0.38,-0.16,-7.59,6.41,-0.36,-0.69,-0.73
10064,-0.41,0.90,-8.35,4.86,-0.49,-0.59,-0.74
10112,-0.49,2.41,-7.13,7.12,-0.65,0.15,-0.22
10158,-0.47,-0.79,-9.11,5.97,-0.62,0.79,-0.53
10204,-0.53,0.98,-5.16,7.37,-0.21,-0.40,-0.49
10249,-0.50,2.44,-8.63,3.66,-1.43,-0.42,-0.30
10295,-0.54,2.48,-7.08,3.32,0.63,0.45,0.39
10340,-0.52,0.73,-7.57,4.62,1.61,2.15,1.19
10386,-0.53,-4.19,-6.11,9.22,0.83,1.56,0.34
10440,-0.57,-0.52,-8.02,5.71,-0.59,-2.61,-0.74
10492,-0.57,2.19,-7.06,5.50,0.20,0.63,0.34
10537,-0.51,0.04,-7.97,5.60,-0.15,-0.26,-0.10
10583,-0.57,1.45,-8.13,5.09,0.19,0.57,0.38
10628,-0.55,-1.10,-7.55,6.61,-0.00,0.37,0.39
10677,-0.54,-0.89,-7.76,6.91,-0.02,0.33,0.08
10723,-0.56,0.17,-7.41,5.74,-0.34,-0.73,-0.59
10768,-0.54,1.60,-7.26,5.30,0.12,0.14,0.17
10814,-0.64,0.41,-8.25,6.13,-0.11,-0.32,0.13
10860,-0.61,2.30,-7.59,4.44,-0.05,0.16,0.13
10905,-0.53,0.44,-7.48,5.53,0.38,0.78,0.50
10961,-0.59,-1.68,-7.70,7.39,0.14,0.62,0.20
11012,-0.60,-0.57,-7.58,6.12,-0.35,-0.65,-0.28
11058,-0.51,1.26,-7.44,4.85,0.05,0.12,0.11
11104,-0.56,-0.13,-7.52,5.93,0.12,0.36,0.23
11150,-0.56,-0.46,-7.25,6.19,0.28,0.27,0.42
11199,-0.59,-0.34,-5.99,7.23,0.17,0.56,0.11
11245,-0.49,-1.57,-7.09,7.09,-0.07,-0.14,-0.10
11292,-0.43,0.32,-7.38,5.76,-0.16,-0.31,-0.27
11339,-0.52,0.12,-7.73,5.77,0.01,0.36,0.03
11386,-0.49,-0.15,-7.11,5.78,0.01,0.21,0.07
11433,-0.44,-1.24,-7.35,7.08,-0.01,0.29,0.18
11488,-0.47,-0.40,-6.78,6.31,-0.25,-0.50,-0.15
11539,-0.37,-0.25,-7.36,6.26,-0.03,-0.02,0.31
11586,-0.49,-0.18,-7.83,5.87,-0.30,-0.31,-0.15
11632,-0.50,-1.04,-7.25,5.70,-0.19,-0.40,0.02
11679,-0.48,-0.89,-6.37,5.69,-0.46,0.02,0.47
11729,-0.51,-1.01,-11.48,5.24,-0.11,-0.48,-0.36
11775,-0.48,2.14,-8.08,5.20,0.15,0.11,-0.56
11821,-0.39,-0.62,-7.42,5.77,0.08,0.43,0.20
11867,-0.38,-0.41,-7.24,6.20,0.25,0.60,-0.02
11913,-0.43,-0.86,-7.02,6.96,-0.01,-0.04,0.28
11960,-0.45,-1.60,-6.76,6.41,-0.11,0.48,0.25
12014,-0.49,0.14,-7.52,6.16,-0.40,-0.95,-0.22
12064,-0.44,-0.82,-7.22,5.82,-0.09,-0.48,0.25
12111,-0.49,0.36,-7.58,5.89,-0.08,-0.40,-0.34
12156,-0.50,0.90,-7.37,5.88,-0.00,-0.14,-0.57
12202,-0.42,1.33,-7.90,5.72,-0.30,-0.34,-0.21
12250,-0.40,0.93,-7.67,5.61,-0.07,-0.28,0.23
12296,-0.36,1.34,-7.36,6.04,-0.04,-0.44,-0.18
12341,-0.32,-0.08,-7.88,6.44,0.03,-0.21,0.14
12387,-0.35,1.33,-7.23,6.18,-0.10,-0.08,0.12
12432,-0.40,1.18,-7.85,5.96,-0.24,0.02,0.10
12478,-0.38,1.44,-7.98,5.57,-0.19,-0.48,0.48
12532,-0.46,-0.24,-8.46,7.05,-0.52,-0.93,-0.26
12583,-0.45,1.14,-7.81,5.87,-0.84,-1.44,-0.79
12629,-0.44,0.91,-8.45,3.36,-1.29,-1.45,-0.39
12674,-0.57,3.97,-8.03,2.51,-0.31,0.22,0.92
12720,-0.69,0.36,-8.31,5.14,-0.07,0.41,0.50
12768,-0.72,1.82,-8.66,5.27,-0.70,-1.94,-0.07
12813,-0.79,2.23,-8.51,3.54,-0.70,-1.24,-0.11
12859,-0.83,3.32,-7.06,1.37,-0.40,-0.40,-0.48
12904,-0.88,1.07,-10.65,1.34,0.41,2.22,0.37
12950,-0.79,1.13,-2.78,3.78,-0.45,-0.75,-0.14
12995,-0.79,3.16,-17.31,5.82,-1.07,-1.57,0.29
13050,-0.74,4.80,-8.91,3.37,-0.54,0.26,1.66
13100,-0.76,0.44,-9.24,-0.91,-0.65,1.87,1.55
13146,-0.86,-2.28,-9.84,5.84,0.04,1.43,-0.02
13192,-0.91,3.16,-9.35,1.95,-1.08,0.26,-0.92
13237,-0.77,1.04,-9.40,0.70,-0.74,0.96,0.50
13285,-0.79,-1.44,-9.90,1.68,-0.40,1.34,0.19
13331,-0.83,-0.57,-9.20,5.48,-0.90,-0.52,-0.50
13376,-0.91,0.12,-8.85,1.70,-2.69,-0.19,-1.13
13422,-0.93,2.99,-10.56,-6.58,-2.13,-0.43,-1.00
13468,-1.06,3.81,-11.54,-0.07,0.88,-0.54,-0.61
13513,-1.06,3.08,-9.87,-2.32,0.27,0.27,0.01
13568,-1.11,1.90,-10.04,1.45,0.66,-0.27,0.60
13618,-1.13,0.17,-9.64,0.55,0.19,-0.23,0.21
13664,-1.14,0.87,-10.05,-0.20,-0.38,-0.25,-0.03
13709,-1.05,0.45,-9.99,-1.47,0.06,-0.11,0.13
13755,-1.10,2.58,-8.56,1.21,0.81,0.55,-0.06
13803,-1.04,0.64,-9.10,1.94,0.72,0.35,-0.74
13849,-1.13,4.48,-9.46,1.53,0.02,0.14,-0.88
13894,-1.13,2.87,-9.84,0.92,-0.14,0.21,-0.21
13940,-1.17,2.98,-9.30,1.94,0.13,-0.70,-0.34
13985,-1.14,1.98,-10.06,-0.23,-0.38,-0.62,0.58
14032,-1.09,-0.22,-10.18,-0.77,-0.19,0.22,0.13
14086,-1.05,2.64,-9.70,0.94,0.00,-0.05,-0.27
14136,-1.07,3.47,-9.48,0.29,0.06,-0.12,-0.07
14181,-1.06,3.04,-9.56,1.05,0.06,0.03,0.14
14227,-1.08,2.34,-9.77,1.15,-0.11,0.08,0.21
14272,-0.99,0.78,-9.95,-0.31,-0.04,-0.01,0.02
14320,-0.98,2.63,-9.78,0.51,-0.06,0.01,-0.06
14366,-1.05,3.72,-9.53,0.63,-0.01,0.07,0.04
14411,-1.01,2.51,-9.58,0.76,-0.02,0.08,0.13
14458,-1.08,2.83,-9.56,2.06,-0.11,-0.05,0.14
14503,-1.11,1.62,-10.12,-0.63,-0.11,-0.15,0.18
14549,-1.14,2.68,-9.74,0.00,0.22,0.11,0.13
14603,-1.10,2.02,-9.61,1.24,0.63,0.44,0.23
14653,-1.18,2.05,-9.50,1.55,0.08,-0.13,-0.12
14699,-1.14,2.63,-9.98,-0.14,0.03,0.02,-0.01
14744,-1.11,2.05,-9.72,1.32,0.12,0.12,0.05
14790,-1.14,1.13,-9.77,1.13,0.05,0.14,0.11
14838,-1.20,2.15,-9.50,2.30,0.18,0.14,-0.17
14884,-1.18,3.35,-9.60,1.34,0.00,0.03,0.07
14930,-1.18,1.58,-9.57,1.24,0.01,0.13,0.13
14975,-1.16,2.26,-9.39,2.81,0.16,-0.07,-0.19
15021,-1.15,1.83,-9.65,1.89,-0.04,-0.19,-0.03
15066,-1.09,1.61,-9.65,1.57,0.03,0.01,-0.11
15120,-1.09,2.46,-9.50,1.23,-0.04,-0.02,-0.10
15170,-1.15,3.71,-9.33,1.93,-0.03,-0.01,-0.07
15216,-1.03,2.87,-9.46,1.52,-0.12,-0.02,0.12
15261,-1.11,2.40,-9.54,1.96,-0.05,0.02,0.16
15307,-1.11,1.37,-9.76,1.32,-0.08,-0.06,0.15
15353,-1.08,1.73,-9.74,1.24,0.01,-0.01,0.08
15401,-1.11,2.35,-9.52,1.69,-0.03,0.05,0.03
15447,-1.11,2.49,-9.48,2.04,-0.05,0.05,0.05
15492,-1.01,2.30,-9.62,1.46,-0.04,0.06,0.09
15538,-1.02,1.71,-9.72,1.47,-0.07,0.03,0.13
15583,-1.02,1.02,-9.80,0.79,-0.07,-0.15,0.01
15637,-1.10,2.42,-9.67,1.98,0.13,0.07,-0.04
15687,-1.19,1.58,-9.68,1.22,0.09,0.30,-0.10
15733,-1.25,3.00,-9.33,2.37,0.17,0.23,0.00
15779,-1.25,2.26,-9.41,2.44,0.14,-0.11,-0.07
15825,-1.32,3.04,-9.40,2.42,-0.01,-0.16,0.06
15870,-1.24,1.77,-9.57,1.94,-0.01,0.10,0.01
15918,-1.20,2.20,-9.48,2.14,0.02,0.12,-0.07
15964,-1.23,2.83,-9.30,2.71,-0.02,0.03,-0.01
16010,-1.25,2.07,-9.54,1.96,-0.10,0.01,0.07
16055,-1.15,1.93,-9.63,1.78,-0.05,0.02,0.05
16100,-1.04,1.76,-9.53,2.13,-0.05,-0.00,0.01
16154,-1.09,2.38,-9.55,1.66,-0.09,0.04,-0.03
16206,-1.07,2.39,-9.51,1.80,-0.07,0.11,0.03
16251,-1.06,2.89,-9.29,2.18,0.08,0.02,0.03
16296,-1.18,2.38,-9.40,2.24,-0.12,-0.04,0.00
16342,-1.11,2.73,-9.40,2.22,-0.11,-0.02,0.11
16388,-1.06,2.16,-9.56,1.71,-0.12,-0.01,0.13
16436,-1.07,1.69,-9.71,1.40,-0.09,0.01,0.08
16481,-1.03,1.54,-9.73,1.45,-0.05,0.02,0.01
16527,-1.12,2.01,-9.58,1.88,-0.02,0.03,-0.04
16572,-1.10,2.40,-9.46,2.02,-0.02,0.02,-0.03
16618,-1.04,2.69,-9.36,2.26,-0.04,0.01,-0.01
16671,-1.14,2.38,-9.43,2.21,-0.09,0.02,0.04
16723,-1.09,2.40,-9.39,2.36,-0.13,-0.01,0.06
16768,-1.07,2.28,-9.54,1.76,-0.14,0.02,0.05
16814,-1.04,2.43,-9.54,1.47,-0.13,0.02,0.05
16859,-1.08,2.62,-9.56,1.71,-0.10,0.02,0.11
16905,-1.06,1.67,-9.73,1.50,-0.06,0.03,0.11
16953,-1.09,1.25,-9.78,1.56,-0.07,0.00,0.04
16998,-1.06,1.46,-9.73,1.52,-0.04,0.03,-0.07
17044,-1.01,2.11,-9.51,1.82,-0.05,-0.01,-0.10
17089,-1.09,4.87,-9.17,3.21,-0.16,-0.18,0.05
17135,-1.19,1.83,-9.91,-0.10,-0.80,-0.25,0.44
17189,-1.16,3.68,-9.83,-0.29,-0.35,0.55,-0.39
17240,-1.15,3.29,-9.93,0.20,0.60,1.96,0.17
17285,-1.14,0.11,-9.09,3.77,-0.17,1.14,0.38
17331,-1.10,2.53,-9.81,2.14,-0.24,0.64,0.74
17376,-1.10,0.99,-9.70,0.48,0.26,1.04,0.58
17422,-1.13,0.51,-9.62,2.68,-0.21,0.95,0.72
17467,-1.08,0.75,-9.44,0.90,-0.24,0.02,0.24
17515,-1.04,-0.09,-9.64,1.59,0.06,0.33,-0.22
17561,-1.08,0.54,-9.73,1.36,0.30,-0.07,-0.29
17606,-1.10,1.14,-9.80,2.04,0.22,0.36,-0.08
17652,-1.01,0.71,-9.61,2.03,-0.04,0.46,0.17
17706,-0.80,-1.01,-9.54,1.90,0.14,-0.28,0.09
17757,-0.79,0.04,-9.66,1.76,0.02,0.31,0.14
17802,-0.73,1.03,-9.63,3.09,0.18,-0.02,-0.04
17848,-0.83,0.33,-9.58,1.95,0.02,0.07,-0.04
17893,-0.88,0.26,-9.50,2.39,0.01,0.04,-0.06
17939,-0.87,0.68,-9.49,2.35,0.01,-0.34,-0.10
17984,-0.84,1.41,-9.52,2.48,0.02,-0.15,-0.10
18033,-0.92,1.24,-9.46,2.49,-0.03,0.04,-0.03
18079,-0.90,1.41,-9.52,2.28,-0.07,0.01,0.05
18124,-0.77,1.12,-9.74,1.47,-0.04,-0.00,0.08
18171,-0.78,1.17,-9.49,2.77,-0.00,0.02,0.09
18224,-0.77,0.34,-9.67,1.79,0.02,0.00,0.05
18274,-0.85,0.93,-9.56,2.50,0.07,-0.21,0.09
18320,-0.82,0.34,-9.53,2.31,0.08,-0.03,0.06
18365,-0.81,0.20,-9.49,2.62,0.06,-0.13,0.04
18411,-0.94,0.26,-9.56,2.23,0.07,-0.20,-0.02
18456,-0.90,0.62,-9.37,5.47,-0.20,-0.80,-0.15
18502,-0.87,4.35,-8.85,2.49,-0.39,-0.23,-0.33
18550,-0.85,0.09,-9.39,1.92,0.09,0.25,0.17
18597,-0.90,0.37,-9.80,3.37,-0.22,-0.11,-0.15
18642,-0.88,2.49,-9.48,2.12,-0.26,-0.08,-0.04
18688,-0.96,0.25,-9.26,2.95,-0.30,0.78,0.27
18741,-0.97,1.79,-9.44,1.40,-0.14,0.46,0.14
18792,-0.96,0.15,-9.80,3.90,-0.52,-0.24,-0.20
18837,-1.00,2.06,-9.74,0.58,-0.46,0.43,0.31
18883,-1.00,-0.75,-9.71,1.40,-0.54,0.10,0.05
18928,-0.95,2.13,-9.74,0.52,0.01,0.57,0.15
18974,-0.91,-0.28,-9.93,2.69,-0.05,0.38,0.12
19019,-0.95,0.46,-9.72,1.89,-0.42,-0.47,-0.22
19068,-0.93,1.24,-9.68,-0.19,0.03,-0.39,-0.33
19114,-1.01,3.04,-9.75,0.83,0.41,0.04,0.01
19159,-1.06,1.34,-9.84,1.63,0.21,0.32,0.51
19205,-1.01,-0.25,-9.28,1.66,-0.34,0.36,0.08
19259,-1.05,-0.27,-9.31,2.62,0.20,0.20,0.15
19309,-1.03,1.65,-9.88,2.71,0.44,0.26,-0.39
19354,-0.92,0.62,-9.64,1.99,-0.06,0.18,0.13
19400,-0.91,0.64,-9.66,2.39,-0.20,-0.31,0.10
19445,-0.94,0.69,-9.86,1.53,-0.43,-0.45,-0.01
19492,-0.90,-0.04,-9.77,1.46,-0.52,-0.41,-0.10
19538,-0.91,0.67,-9.62,0.11,-0.31,-0.46,-0.18
19583,-0.90,0.98,-9.75,2.06,0.05,-0.41,-0.25
19631,-0.95,1.98,-9.74,0.74,-0.34,-0.72,-0.25
19677,-1.07,1.60,-9.82,0.90,-0.37,-0.20,-0.09
19722,-1.07,1.90,-9.72,0.94,-0.05,0.02,0.05
19776,-1.06,0.94,-9.84,1.81,-0.32,-0.31,-0.10
19826,-0.93,1.58,-9.85,1.31,-0.40,-0.50,-0.21
19872,-1.00,2.03,-9.73,0.56,-0.22,-0.33,-0.11
19918,-1.06,3.05,-9.65,0.13,-0.03,-0.10,-0.16
19964,-1.03,1.49,-10.14,1.86,-0.21,-0.30,0.07
20010,-1.05,2.83,-9.90,0.04,-0.42,-0.44,0.45
20055,-1.09,0.25,-9.65,1.12,-0.31,-0.24,0.65
20101,-1.17,0.37,-9.95,0.44,-0.17,-0.09,0.10
20149,-1.09,2.41,-9.44,-0.51,-0.12,0.07,-0.27
20194,-1.06,2.29,-10.06,0.56,0.23,0.24,0.30
20240,-1.02,2.31,-9.91,0.23,-0.04,0.44,0.47
20294,-1.04,0.06,-9.86,0.57,0.14,0.72,0.53
20345,-0.87,-0.62,-9.73,1.22,0.23,0.63,-0.51
20390,-0.81,2.53,-9.92,-0.23,0.32,0.44,0.07
20436,-0.83,0.04,-10.14,1.84,0.18,0.26,0.06
20481,-0.77,1.79,-9.83,0.62,-0.30,-0.19,-0.14
20527,-0.90,1.02,-9.84,0.29,-0.01,0.41,0.08
20572,-0.87,0.74,-9.95,0.88,0.03,0.40,0.23
20618,-0.90,1.02,-9.66,0.10,0.38,0.39,0.12
20666,-0.92,0.80,-10.06,1.55,0.25,0.30,0.05
20711,-0.93,0.97,-9.79,1.34,-0.13,-0.23,-0.15
20757,-1.02,2.15,-9.75,1.02,-0.25,0.17,0.06
20810,-0.96,0.07,-9.79,1.41,0.02,0.02,0.06
20862,-0.99,0.79,-9.83,0.84,-0.04,-0.16,-0.08
20907,-0.99,1.52,-9.85,1.00,-0.04,-0.06,-0.03
20953,-0.96,0.74,-9.72,1.79,-0.03,-0.01,0.04
20998,-0.95,0.67,-9.80,0.88,-0.16,-0.16,-0.03
21044,-0.94,1.87,-9.84,1.05,-0.09,-0.03,-0.01
21089,-0.86,1.04,-9.84,0.79,-0.13,-0.04,0.07
21135,-0.87,1.38,-9.82,0.92,-0.07,-0.30,0.11
21183,-0.85,0.50,-9.95,0.31,-0.06,-0.05,0.11
21228,-0.83,0.80,-9.83,0.87,0.01,0.04,0.02
21274,-0.83,1.05,-9.90,0.99,-0.03,0.02,0.06
21328,-0.83,0.83,-9.84,1.08,-0.01,0.05,0.11
21378,-0.79,0.78,-9.91,0.41,-0.01,0.01,0.02
21424,-0.87,1.13,-9.83,0.85,0.03,0.01,0.01
21469,-0.87,1.05,-9.84,0.58,0.09,0.06,0.00
21515,-0.94,0.55,-9.80,1.52,0.04,0.03,0.02
21560,-0.91,1.09,-9.75,1.36,0.05,-0.07,0.03
21606,-0.88,1.65,-9.80,1.14,-0.03,-0.18,0.03
21651,-0.94,0.48,-9.89,0.62,0.07,0.06,0.11
21699,-0.91,0.91,-9.70,2.01,0.03,0.03,0.09
21745,-0.82,0.32,-9.77,1.28,-0.04,-0.07,0.06
21790,-0.87,0.40,-9.85,1.02,-0.02,-0.08,0.04
21845,-0.82,0.65,-9.73,1.41,0.03,0.06,0.00
21895,-0.79,0.79,-9.63,2.16,-0.06,-0.01,-0.00
21941,-0.79,0.70,-9.74,1.46,-0.18,-0.11,-0.01
21986,-0.88,0.63,-9.87,0.81,-0.06,-0.05,-0.01
22032,-0.94,0.86,-9.78,1.15,-0.10,-0.04,-0.03
22077,-0.82,0.60,-9.91,0.86,-0.08,-0.05,-0.04
22123,-0.83,1.67,-9.76,1.26,-0.02,-0.04,-0.06
22168,-1.00,0.92,-9.80,0.91,-0.07,-0.03,-0.02
22214,-1.11,1.24,-9.67,2.12,-0.03,0.07,0.06
22262,-1.08,1.02,-9.77,1.13,-0.16,-0.17,0.04
22309,-0.99,0.99,-9.84,1.22,-0.09,-0.16,0.03
22362,-0.90,0.96,-9.88,0.48,-0.10,-0.05,0.01
22413,-0.94,0.68,-9.94,0.82,-0.05,0.01,-0.02
22458,-0.91,0.46,-9.90,0.53,0.01,0.04,-0.05
22504,-1.00,1.02,-9.76,1.30,0.07,0.03,-0.10
22549,-0.93,1.34,-9.69,1.46,0.01,0.03,-0.08
22594,-1.01,1.53,-9.65,1.71,-0.01,0.06,-0.04
22640,-0.86,1.45,-9.68,1.56,-0.08,0.02,-0.02
22685,-0.91,1.38,-9.74,1.39,-0.13,-0.02,0.03
22731,-0.99,1.15,-9.80,0.97,-0.11,-0.01,0.05
22780,-1.05,0.83,-9.94,0.56,-0.10,-0.03,0.03
22826,-1.07,1.17,-9.90,0.34,0.00,0.02,-0.01
22879,-0.99,1.27,-9.82,1.12,0.06,0.05,-0.00
22930,-0.89,1.19,-9.82,1.11,0.07,0.06,0.02
22975,-0.93,1.25,-9.68,2.02,0.06,0.08,0.01
23020,-0.81,1.42,-9.69,1.76,-0.05,0.04,0.01
23066,-0.90,1.45,-9.68,1.67,-0.06,0.03,0.04
23111,-0.96,1.18,-9.74,1.36,-0.11,0.02,0.06
23157,-1.00,1.11,-9.83,0.98,-0.12,0.01,0.05
23203,-1.06,1.16,-9.83,1.05,-0.05,0.02,0.06
23249,-1.15,1.28,-9.81,1.00,-0.07,0.03,0.05
23297,-1.05,1.07,-9.84,0.83,-0.04,0.03,0.05
23342,-1.08,1.06,-9.83,1.05,0.01,0.05,0.06
23396,-1.05,0.67,-9.77,1.44,0.01,0.06,0.05
23446,-0.90,1.27,-9.72,1.50,-0.01,0.03,0.02
23492,-0.93,1.46,-9.70,1.65,-0.06,0.04,0.07
23537,-0.99,0.83,-9.82,1.28,-0.09,0.03,0.08
23583,-0.91,0.55,-9.86,0.81,-0.06,0.01,0.05
23628,-1.00,0.78,-9.84,0.84,-0.01,0.03,0.01
23674,-0.93,1.12,-9.79,1.14,0.03,0.04,0.00
23720,-0.96,0.93,-9.79,1.22,0.03,0.03,0.01
23765,-0.98,1.25,-9.80,1.37,0.05,0.05,0.03
23811,-0.85,1.06,-9.76,1.47,0.02,0.07,0.04
23859,-0.85,1.28,-9.68,1.77,0.04,0.06,0.02
23912,-0.86,0.91,-9.73,1.66,-0.02,0.01,0.05
23963,-0.80,0.86,-9.74,1.76,-0.04,0.04,0.05
24008,-0.71,0.74,-9.78,0.99,-0.03,0.03,0.00
24054,-0.72,0.56,-9.82,1.28,0.01,0.08,-0.01
24100,-0.74,1.13,-9.60,1.81,0.04,0.12,-0.04
24146,-0.84,1.55,-9.54,2.63,-0.05,0.00,0.03
24191,-0.95,1.23,-9.61,1.93,-0.17,-0.03,0.04
24237,-0.84,0.62,-9.77,1.55,-0.17,-0.03,0.07
24282,-0.76,0.68,-9.76,0.71,-0.12,0.00,-0.01
24328,-0.67,0.28,-9.74,0.30,-0.11,0.04,-0.05
24376,-0.63,1.91,-9.77,1.56,0.04,0.02,0.03
24429,-0.72,1.25,-9.76,1.52,0.02,0.05,0.04
24480,-0.74,0.98,-9.78,1.24,-0.04,-0.00,0.03
24526,-0.71,0.68,-9.90,0.63,0.02,0.08,0.02
24572,-0.81,1.06,-9.76,1.37,0.13,0.10,0.01
24617,-0.76,1.18,-9.67,1.66,0.12,0.10,-0.02
24662,-0.79,2.73,-9.82,7.95,-0.21,0.01,0.10
24708,-0.73,0.68,-9.48,-0.45,-0.51,-0.22,-0.17
24754,-0.68,1.97,-9.66,1.33,1.18,-0.06,0.18
24799,-0.74,0.76,-9.76,1.11,-0.53,-0.16,-0.12
24845,-0.61,1.00,-9.76,1.34,0.21,0.00,0.07
24893,-0.62,1.86,-9.68,0.84,-0.55,-0.24,-0.21
24946,-0.64,1.73,-9.83,1.06,-0.20,0.08,0.05
24998,-0.68,0.21,-9.71,0.73,1.01,0.21,0.47
25043,-0.75,-0.18,-9.73,2.49,0.12,0.14,0.14
25089,-0.79,1.90,-9.74,-1.39,0.12,-0.60,-0.14
25134,-0.77,0.02,-9.60,3.88,1.40,0.07,0.01
25180,-0.71,2.56,-9.53,3.53,0.52,0.38,-0.17
25225,-0.76,-6.44,-8.36,2.01,-1.86,0.39,0.60
25271,-0.81,1.83,-9.53,0.37,-0.09,-0.14,-0.09
25316,-0.93,3.39,-9.80,-2.30,0.60,0.31,0.32
25362,-0.85,1.18,-9.43,3.29,-0.39,0.07,0.06
25407,-0.78,0.40,-9.73,2.78,-0.30,-0.07,-0.07
25462,-0.78,0.86,-9.79,0.73,-0.23,-0.14,-0.14
25514,-0.84,0.63,-9.67,3.38,-0.04,0.11,0.08
25559,-0.81,0.02,-9.59,1.52,-0.09,-0.05,-0.13
25605,-0.76,1.33,-9.58,1.61,-0.73,-0.12,-0.20
25650,-0.71,2.00,-9.65,0.18,0.33,0.05,0.24
25696,-0.71,0.11,-9.62,4.55,-0.51,0.02,-0.29
25741,-0.71,2.66,-9.74,0.77,0.36,0.20,0.29
25787,-0.76,0.23,-9.69,3.59,0.08,-0.09,0.09
25832,-0.87,0.82,-9.86,1.74,-0.58,-0.10,-0.10
25878,-0.79,0.91,-9.79,0.52,-0.01,0.03,0.12
25923,-0.71,0.95,-9.62,0.00,-0.09,0.15,-0.05
25979,-0.75,0.71,-9.53,3.42,0.19,0.27,0.31
26030,-0.88,1.13,-9.68,1.26,-0.11,-0.20,-0.31
26075,-0.85,-0.09,-10.05,2.11,-0.10,-0.26,-0.36
26121,-0.83,1.91,-9.48,3.33,-0.74,-0.16,-0.18
26166,-0.81,1.61,-9.57,0.91,0.57,-0.12,0.20
26212,-1.01,-0.10,-9.74,0.85,-0.14,0.04,-0.16
26257,-1.01,1.29,-9.67,3.43,-0.15,0.00,-0.12
26303,-0.92,2.76,-9.74,1.19,-0.26,-0.07,-0.05
26349,-0.86,1.31,-10.22,1.64,0.49,-0.00,0.10
26394,-0.86,1.08,-9.84,1.53,0.32,0.07,0.10
26440,-1.02,0.67,-9.69,1.60,0.15,0.16,0.16
26496,-0.87,0.73,-9.81,2.72,0.12,0.05,0.15
26546,-0.87,2.27,-9.53,0.85,-0.35,0.05,0.24
26592,-0.86,1.13,-9.82,1.01,0.25,-0.35,0.35
26637,-0.79,-1.12,-9.69,2.60,0.37,0.24,0.22
26683,-0.80,1.11,-9.56,3.52,-0.39,-0.12,-0.06
26728,-0.84,2.04,-9.58,1.50,-0.30,-0.25,-0.04
26774,-0.82,0.30,-9.76,1.94,-0.02,0.10,0.04
26819,-0.77,0.68,-9.74,2.77,-0.52,-0.14,-0.16
26865,-0.74,1.26,-9.72,-0.88,-0.14,-0.13,-0.06
26910,-0.73,-0.05,-9.85,2.30,0.07,0.07,-0.02
26956,-0.73,3.71,-9.96,-2.72,0.59,0.05,0.13
27012,-0.62,0.75,-9.50,2.55,0.27,-0.06,0.25
27062,-0.62,1.74,-9.60,2.12,-0.07,0.05,0.08
27108,-0.74,0.78,-9.60,1.41,0.01,0.07,0.06
27153,-0.75,0.43,-9.65,2.12,-0.13,-0.02,-0.01
27199,-0.78,0.60,-9.65,1.13,0.08,-0.13,0.05
27244,-0.77,0.19,-9.48,3.00,-0.08,-0.07,0.09
27290,-0.72,0.54,-9.69,2.07,0.03,-0.03,0.09
27335,-0.78,0.34,-9.42,3.25,-0.01,-0.00,0.09
27381,-0.77,1.53,-9.69,2.25,-0.47,-0.14,0.05
27427,-0.74,0.14,-9.42,4.36,-0.23,-0.24,0.14
27473,-0.84,1.34,-9.79,0.30,-0.50,-0.51,0.16
27528,-0.85,0.68,-9.75,0.62,0.41,-0.21,0.44
27578,-0.88,-0.51,-9.63,3.01,-0.12,0.22,0.13
27624,-0.87,-0.08,-9.49,2.38,-0.42,0.16,0.30
27670,-0.92,0.81,-9.50,1.52,-0.09,-0.09,-0.15
27715,-0.86,0.75,-9.78,1.14,0.11,0.04,-0.33
27761,-0.84,0.49,-9.71,1.43,0.30,-0.09,-0.10
27806,-0.79,1.02,-9.62,1.99,0.17,0.20,-0.33
27852,-0.81,1.15,-9.67,2.87,-0.34,0.24,-0.11
27898,-0.82,0.78,-9.61,1.06,-0.05,0.26,0.18
27944,-0.87,0.60,-9.66,1.40,-0.05,0.05,0.06
27989,-0.84,0.19,-9.89,0.95,0.09,-0.11,-0.01
28042,-0.92,2.22,-9.70,0.36,0.38,-0.63,0.15
28095,-0.88,-0.70,-9.18,5.26,-0.28,-0.03,-0.15
28140,-0.85,1.60,-9.57,-0.00,-0.50,-0.05,-0.15
28186,-0.85,1.11,-9.79,1.76,0.25,0.29,0.25
28231,-0.85,0.76,-9.71,1.36,-0.04,-0.05,0.01
28277,-0.86,0.78,-9.69,1.86,-0.01,0.04,0.00
28323,-0.81,0.71,-9.61,2.33,-0.09,-0.10,-0.02
28369,-0.72,1.32,-9.76,1.07,0.35,-0.03,-0.05
28414,-0.74,0.50,-9.72,3.00,0.17,0.06,0.01
28460,-0.74,0.87,-9.42,2.72,-0.47,0.04,-0.03
28505,-0.65,1.04,-9.76,1.30,-0.07,-0.00,0.06
28559,-0.68,0.70,-9.83,1.89,-0.32,0.20,0.00
28612,-0.78,0.73,-9.57,1.76,0.02,0.08,0.04
28657,-0.85,1.04,-9.60,3.04,-0.14,-0.03,-0.06
28703,-0.88,1.83,-9.65,0.89,-0.21,-0.04,-0.06
28748,-0.92,0.22,-9.96,2.49,0.20,0.12,-0.02
28795,-0.91,0.45,-9.48,3.27,-0.08,-0.00,-0.04
28840,-0.92,3.94,-9.13,3.42,-0.06,-0.02,0.21
28886,-0.87,0.95,-9.73,2.31,0.34,-0.03,0.01
28931,-0.80,0.86,-9.62,2.41,-0.07,0.01,0.11
28977,-0.78,0.73,-9.66,1.82,-0.25,-0.22,0.06
29022,-0.79,1.23,-9.77,1.68,-0.04,-0.23,0.07
29077,-0.71,0.89,-9.70,1.74,0.04,0.03,0.07
29130,-0.74,0.50,-9.65,2.27,-0.04,-0.07,0.03
29175,-0.70,0.83,-9.59,1.78,0.00,0.08,-0.03
29222,-0.78,1.20,-9.71,2.09,0.03,0.03,-0.06
29267,-0.77,1.45,-9.63,1.89,-0.17,0.05,0.05
29313,-0.81,-0.04,-10.28,1.98,-0.57,0.28,-0.00
29358,-0.83,0.80,-10.14,0.73,-0.97,0.49,-0.05
29404,-0.78,1.81,-9.52,0.76,-0.43,0.52,0.30
29449,-0.73,2.41,-9.26,1.93,0.54,0.15,-0.27
29495,-0.69,0.33,-9.91,1.73,0.69,-0.77,-0.79
29540,-0.77,1.69,-10.18,1.60,0.02,-0.01,-0.51
29594,-0.78,2.52,-9.59,0.58,-0.31,-0.05,0.15
29648,-0.76,3.82,-8.98,7.17,1.16,0.46,0.38
29693,-0.67,1.19,-9.58,3.35,0.19,0.12,0.12
29739,-0.59,1.42,-9.35,2.60,0.18,0.19,0.20
29784,-0.62,1.85,-9.39,1.55,-0.24,-0.07,0.22
29830,-0.65,1.25,-9.91,0.87,0.14,0.15,0.01
29875,-0.74,0.67,-8.63,4.13,0.66,0.05,-0.19
29921,-0.64,0.40,-9.46,4.26,0.57,-1.34,-0.02
29966,-0.61,1.97,-10.50,0.48,-0.45,-0.50,0.17
30012,-0.70,1.70,-9.90,1.50,-0.29,-0.95,0.80
30057,-0.78,1.26,-9.47,2.26,-0.21,-0.45,0.58
30111,-0.79,0.39,-9.44,2.38,-0.08,-0.09,-0.01
30165,-0.71,1.32,-9.48,2.28,-0.35,-0.18,0.53
30210,-0.73,1.34,-9.57,0.92,0.07,-0.23,0.25
30256,-0.69,0.40,-9.38,2.95,0.03,-0.13,-0.03
30301,-0.73,1.10,-9.36,2.05,0.01,-0.17,-0.23
30347,-0.73,0.37,-9.70,2.61,0.10,-0.18,-0.25
30392,-0.63,0.59,-9.47,3.44,-0.24,-0.36,0.47
30438,-0.58,0.71,-9.25,2.63,-0.20,-1.38,0.46
30483,-0.56,1.17,-10.00,1.38,-0.28,-0.11,0.25
30529,-0.62,1.47,-9.57,0.61,-0.18,-0.43,0.02
30574,-0.67,1.15,-9.73,1.40,0.03,-0.09,-0.18
30629,-0.63,0.50,-9.88,2.90,-0.16,-0.05,0.05
30682,-0.69,1.38,-9.59,1.04,-0.42,-0.09,0.55
30728,-0.67,0.55,-9.53,1.94,0.13,0.17,0.26
30773,-0.73,0.82,-9.63,1.02,0.36,0.16,0.02
30819,-0.82,0.50,-9.67,2.25,0.39,-0.01,-0.13
30864,-0.80,0.45,-9.36,3.50,0.25,-0.16,-0.05
30910,-0.83,0.91,-9.56,2.21,0.03,0.08,-0.04
30955,-0.86,0.51,-9.89,2.36,-0.15,0.01,-0.05
31001,-0.85,0.62,-9.31,2.39,-0.05,0.03,0.41
31046,-0.79,1.26,-9.56,1.50,-0.41,-0.36,-0.19
31092,-0.83,0.58,-9.63,2.97,-0.24,0.06,-0.12
31146,-0.81,0.87,-9.61,2.10,-0.49,0.03,0.14
31197,-0.81,1.02,-9.73,1.24,-0.11,0.35,0.10
31245,-0.81,0.40,-9.47,2.45,-0.63,0.25,0.05
31290,-0.67,1.16,-10.33,-0.25,-0.60,0.40,-0.16
31336,-0.71,0.33,-9.79,1.04,0.32,0.22,0.05
31381,-0.79,0.84,-9.65,1.83,0.05,-0.10,-0.08
31427,-0.73,0.43,-9.76,2.25,0.16,0.15,-0.02
31472,-0.83,0.62,-9.41,2.08,0.23,0.09,-0.04
31518,-0.82,0.75,-9.62,2.02,0.25,-0.20,-0.26
31563,-0.86,0.96,-9.72,2.14,-0.10,-0.13,-0.23
31610,-0.80,1.31,-9.90,0.79,-0.20,0.03,-0.05
31664,-0.81,0.82,-9.91,1.01,0.21,0.02,-0.01
31714,-0.84,1.57,-9.24,2.11,0.58,-0.31,-0.01
31762,-0.88,1.50,-9.43,2.49,0.46,-0.40,-0.53
31808,-0.78,1.40,-9.74,2.77,0.13,-0.23,-0.31
31853,-0.80,1.87,-9.88,2.02,-0.12,-0.12,-0.01
31899,-0.83,0.86,-9.98,2.71,-0.31,-0.20,0.98
31944,-0.80,-1.23,-6.73,5.66,0.17,-2.92,0.86
31990,-0.76,0.91,-9.46,0.99,-0.85,-1.91,1.03
32036,-0.82,1.19,-10.06,-1.50,-0.35,0.22,0.44
32082,-0.79,1.17,-9.17,2.73,-0.94,-0.20,-0.43
32128,-0.83,1.10,-9.80,0.37,-0.29,-0.71,-0.13
32181,-0.84,1.47,-9.78,0.02,0.27,0.23,-0.94
32232,-0.81,1.51,-9.80,2.12,0.62,0.64,-0.10
32280,-0.81,1.60,-9.76,1.98,0.60,-0.30,0.19
32325,-0.86,0.97,-10.63,1.53,0.77,-0.02,1.20
32371,-0.84,1.51,-9.41,1.71,-0.55,0.74,0.86
32416,-0.76,1.20,-9.46,0.79,-0.35,0.50,-0.08
32463,-0.81,0.96,-9.35,2.52,-0.31,0.56,-0.53
32508,-0.88,0.85,-9.61,1.90,0.23,0.62,-0.50
32554,-0.86,0.83,-9.37,3.55,0.04,0.28,0.00
32599,-0.80,0.90,-9.50,2.38,0.30,0.13,0.03
32645,-0.79,1.39,-9.71,1.31,-1.19,1.16,-0.45
32698,-0.90,1.05,-9.66,1.16,-0.75,1.54,-0.85
32749,-0.81,1.83,-9.45,0.46,0.09,1.10,-0.73
32797,-0.77,-0.90,-9.51,2.39,0.24,0.20,-0.57
32842,-0.75,1.10,-9.82,2.55,-0.55,-0.62,0.17
32889,-0.74,2.09,-9.70,1.30,-0.50,0.21,0.26
32934,-0.74,2.36,-9.25,1.60,0.08,-0.23,0.08
32980,-0.74,1.83,-9.86,1.13,-0.34,-0.48,-0.04
33025,-0.74,1.92,-9.79,0.73,-0.38,-0.38,-0.08
33071,-0.81,2.11,-9.79,1.13,-0.21,0.10,0.24
33116,-0.86,1.81,-9.84,0.31,-0.17,-0.01,0.16
33162,-0.89,1.74,-9.73,0.57,-0.02,0.20,0.08
33216,-0.87,2.06,-9.82,-0.44,0.31,0.27,0.21
33266,-0.86,1.66,-10.32,1.41,-0.07,0.24,0.68
33312,-0.80,0.82,-9.82,2.51,-0.24,-0.63,-0.01
33361,-0.69,1.40,-9.50,1.63,-0.06,0.14,0.28
33406,-0.72,1.20,-8.96,2.89,0.79,-0.00,-0.30
33452,-0.74,1.02,-10.33,1.23,0.32,-0.15,0.06
33497,-0.74,1.56,-10.08,0.88,-0.24,-0.04,-0.04
33543,-0.77,3.29,-9.56,1.51,-0.51,-0.15,-0.53
33588,-0.78,0.96,-9.79,0.66,0.25,-0.25,-0.27
33634,-0.76,1.98,-9.55,1.20,0.22,-0.34,-0.25
33679,-0.72,1.70,-10.58,0.66,0.60,-0.50,0.00
33733,-0.64,1.85,-9.84,1.88,-0.56,0.19,0.57
33783,-0.60,3.49,-9.68,2.57,-1.08,0.12,0.68
33830,-0.70,1.66,-9.45,-0.17,-0.61,-0.00,0.52
33878,-0.65,1.91,-9.09,1.04,0.67,-0.14,-0.19
33923,-0.70,2.41,-9.48,-0.54,1.00,-0.18,-1.15
33969,-0.67,1.03,-10.46,5.27,0.54,0.33,-0.91
34015,-0.67,2.17,-10.03,0.70,-0.16,0.35,0.30
34060,-0.66,1.70,-9.82,0.84,-0.50,-0.08,1.07
34106,-0.69,1.26,-9.50,2.19,-0.19,0.09,0.37
34151,-0.76,1.73,-9.63,1.85,-0.10,0.05,0.22
34197,-0.81,1.91,-9.28,1.56,-0.00,-0.20,0.08
34250,-0.77,1.48,-9.71,0.53,0.12,-0.24,-0.24
34302,-0.73,1.41,-10.13,2.51,-0.21,-0.02,-0.04
34347,-0.73,1.33,-9.88,1.24,-0.40,0.18,0.59
34395,-0.80,1.24,-9.98,1.09,-0.53,-0.15,0.67
34441,-0.77,0.77,-9.64,1.41,-0.37,-0.26,0.29
34486,-0.71,1.76,-9.48,2.38,-0.01,0.38,0.01
34532,-0.83,1.44,-9.59,1.24,0.26,-0.05,-0.13
34577,-0.79,-0.69,-9.76,0.14,0.35,0.03,-0.61
34623,-0.79,1.39,-10.14,1.69,-0.17,0.31,0.05
34668,-0.86,1.66,-9.32,1.79,0.06,0.02,0.04
34714,-0.85,-0.50,-9.30,3.81,-0.13,-0.22,-0.34
34769,-0.72,2.35,-9.69,1.12,-0.03,-0.05,-0.12
34819,-0.76,1.03,-9.31,1.13,0.54,0.16,-0.41
34864,-0.77,2.08,-9.37,1.07,0.80,0.17,-0.91
34913,-0.79,1.95,-10.02,3.76,0.18,-0.09,-0.49
34958,-0.77,2.72,-10.51,1.32,0.05,0.26,0.40
35004,-0.72,2.13,-9.78,1.97,-0.86,-0.05,0.83
35049,-0.77,1.62,-9.00,1.58,-1.03,-0.26,0.53
35095,-0.77,2.51,-9.21,0.68,-0.21,-0.14,-0.08
35140,-0.72,2.40,-10.15,-0.09,0.65,-0.01,-0.10
35186,-0.63,1.03,-9.90,3.08,-0.27,0.07,0.18
35231,-0.60,0.57,-10.13,2.45,-0.61,-0.01,0.38
35286,-0.74,3.25,-6.05,-2.26,-1.56,1.06,2.01
35336,-0.83,-2.20,-9.04,5.55,1.24,0.55,-0.09
35382,-0.86,3.05,-9.12,2.33,-0.39,-0.99,-1.93
35430,-0.88,2.04,-10.25,0.68,-0.02,-0.38,-0.55
35476,-0.94,1.69,-10.14,1.82,-0.96,0.20,0.74
35521,-1.06,0.43,-9.72,1.56,-0.71,0.71,1.27
35567,-1.11,-0.28,-9.63,-1.13,-0.50,0.67,1.25
35612,-1.14,-1.06,-9.62,0.41,0.87,0.28,0.71
35658,-1.14,-1.23,-9.68,0.08,0.59,-0.24,-1.05
35703,-1.12,0.53,-9.43,3.12,0.94,-0.26,-0.95
35750,-1.06,1.36,-9.28,3.33,-0.36,-0.59,-1.24
35804,-1.12,0.41,-8.91,-1.33,-1.19,-0.54,-0.98
35854,-1.02,2.01,-9.81,-0.41,0.06,0.55,0.09
35900,-1.01,2.79,-9.72,1.74,0.21,0.11,0.08
35948,-0.99,0.06,-9.47,1.58,0.33,0.45,-0.40
35993,-1.00,1.94,-9.75,1.75,0.36,-0.30,-0.36
36039,-1.07,2.96,-10.44,-0.46,0.15,0.03,-0.83
36084,-1.15,3.02,-9.65,1.55,-0.23,0.54,0.58
36131,-1.17,0.83,-9.99,1.50,-0.35,0.71,0.71
36176,-1.08,0.89,-9.62,-0.36,-0.37,0.50,0.18
36222,-1.06,2.53,-9.88,-0.45,0.37,0.41,-0.14
36267,-1.05,1.47,-9.46,1.02,0.24,0.02,0.06
36321,-1.06,2.42,-9.91,2.88,0.55,-0.13,0.17
36371,-1.10,2.91,-10.17,1.25,0.24,-0.65,-0.10
36417,-1.08,2.21,-9.28,0.46,0.82,0.19,1.36
36465,-1.02,1.61,-9.32,3.42,0.54,-0.24,0.40
36510,-1.10,2.28,-9.95,2.60,-0.07,-0.08,1.19
36556,-1.05,-1.20,-8.99,2.02,-0.05,-0.10,1.06
36603,-1.00,0.18,-9.67,3.00,-0.13,-0.81,-0.25
36648,-1.04,0.24,-9.27,2.23,-0.36,-0.29,0.27
36694,-1.10,-0.24,-9.57,1.20,0.15,-1.07,-0.65
36739,-1.12,1.06,-9.48,3.68,0.46,-0.09,0.24
36785,-1.04,1.12,-9.65,1.24,-0.06,-0.27,-0.31
36839,-1.12,0.48,-9.30,3.38,-0.11,-0.42,-0.35
36889,-1.01,1.23,-9.67,2.49,0.12,-0.30,0.20
36934,-0.96,0.45,-9.30,2.62,0.07,-0.47,0.04
36983,-0.97,2.31,-9.86,1.13,0.27,-0.60,-0.10
37029,-1.05,1.10,-9.18,2.98,1.16,0.25,0.63
37075,-1.07,0.68,-9.23,3.88,0.10,-0.23,-0.12
37120,-1.15,1.22,-9.26,2.69,0.21,-0.13,0.09
37166,-1.16,0.94,-9.32,2.27,0.59,0.18,0.03
37211,-1.11,0.96,-8.83,5.77,0.19,-0.12,0.16
37257,-1.20,1.24,-8.95,3.23,0.08,-0.28,0.15
37302,-1.12,-0.31,-9.00,5.38,-0.16,-0.52,0.25
37356,-1.08,1.65,-9.32,1.60,-0.18,-0.05,0.18
37406,-1.06,-0.27,-9.22,4.04,0.45,-0.13,0.01
37452,-1.08,0.85,-8.86,3.87,0.04,-0.01,0.03
37498,-1.20,1.47,-9.10,2.71,0.28,0.04,-0.04
37546,-1.06,0.44,-8.61,6.47,-0.16,0.03,0.00
37592,-1.08,1.69,-9.42,1.99,0.53,0.09,0.21
37637,-0.96,1.60,-8.58,4.58,0.74,0.07,0.39
37683,-0.97,0.66,-8.58,4.80,-0.10,-0.03,0.12
37728,-1.05,1.59,-8.82,3.81,0.21,0.02,0.17
37774,-1.15,-0.02,-8.29,3.21,1.50,0.34,0.51
37819,-1.06,1.41,-8.09,8.58,-0.26,0.00,-0.02
37873,-1.06,0.06,-8.51,3.65,0.17,0.06,0.05
37924,-1.04,-0.24,-8.24,4.51,0.44,0.03,-0.16
37970,-1.07,0.77,-8.07,7.35,-0.50,-0.09,0.03
38015,-1.11,1.72,-8.71,3.44,-0.52,0.16,0.48
38071,-1.20,0.46,-8.31,4.86,-0.06,-0.02,0.28
38116,-1.22,-0.04,-8.26,3.57,0.41,0.02,0.42
38162,-1.11,-0.02,-8.19,7.23,-0.08,0.04,0.02
38207,-1.07,-0.07,-8.33,5.03,-0.07,0.03,-0.01
38253,-1.09,-0.41,-8.29,4.69,-0.16,-0.07,-0.05
38298,-1.14,0.63,-8.37,5.27,0.01,-0.01,-0.12
38344,-1.10,0.55,-7.95,5.72,-0.56,0.07,-0.18
38399,-1.06,1.67,-9.05,3.31,-0.22,-0.02,-0.82
38449,-1.07,0.84,-8.67,5.26,-0.33,0.04,-0.29
38495,-1.04,2.21,-8.40,4.80,-0.34,-0.11,-0.03
38540,-1.02,1.24,-8.71,5.11,-1.05,-0.31,0.02
38588,-1.06,1.78,-8.66,2.98,-1.97,-0.62,-0.96
38634,-1.10,3.14,-9.61,1.34,-1.00,-1.04,-0.03
38679,-1.14,-1.52,-9.65,0.76,0.32,-1.86,0.58
38725,-1.15,1.07,-9.09,3.62,0.06,-2.08,0.53
38770,-1.10,4.33,-9.40,0.65,-0.06,-0.70,0.45
38816,-1.11,1.38,-9.29,3.85,0.26,-0.10,0.05
38862,-1.10,1.54,-9.33,2.57,-0.29,-0.19,-0.10
38916,-1.10,1.70,-9.37,2.98,-0.43,-0.29,0.09
38967,-1.06,2.45,-9.75,-0.45,0.97,0.47,0.32
39012,-1.13,2.01,-8.39,4.79,0.23,0.33,-1.43
39058,-1.10,2.71,-9.72,5.65,-0.28,-0.01,0.04
39106,-1.08,1.89,-8.69,1.86,-0.49,-0.25,0.55
39151,-1.08,1.47,-9.40,0.64,-1.52,1.09,0.06
39197,-1.11,2.60,-9.88,1.78,-0.43,0.71,-0.88
39242,-1.08,2.03,-9.51,4.45,-0.67,1.66,-1.02
39289,-1.14,5.58,-10.09,-1.49,-0.75,1.05,-0.50
39334,-1.20,2.82,-9.53,2.19,0.15,0.72,0.28
39380,-1.22,3.14,-9.37,2.61,-0.48,0.88,0.05
39434,-1.27,2.55,-9.51,1.99,-0.25,0.38,-0.01
39484,-1.20,2.30,-9.24,1.46,-0.03,0.55,0.14
39529,-1.10,2.43,-9.68,3.06,-0.34,0.45,0.03
39575,-1.13,1.23,-9.25,0.89,-0.13,0.44,0.24
39620,-1.12,1.24,-9.38,1.12,0.23,0.37,0.07
39669,-1.14,1.72,-9.69,1.00,0.49,0.16,0.19
39715,-1.09,1.24,-9.30,3.36,0.23,0.24,-0.29
39761,-1.10,2.81,-8.78,-1.17,1.14,0.15,-0.43
39806,-1.16,2.36,-9.26,4.17,0.60,0.43,-0.46
39852,-1.21,2.52,-8.79,3.87,0.04,0.28,-0.07
39897,-1.22,3.27,-8.79,3.03,-0.26,-0.02,-0.05
39952,-1.15,0.26,-8.68,5.32,0.65,0.75,0.28
40002,-1.20,2.37,-8.68,4.10,-0.28,0.11,-0.18
40047,-1.19,1.77,-11.54,2.04,0.11,0.33,-0.22
40093,-1.10,0.02,-10.55,5.18,-0.00,-0.39,0.09
40139,-1.08,2.58,-9.50,2.00,0.15,0.37,0.08
40188,-1.05,2.03,-8.67,6.79,-1.00,-0.34,-0.36
40233,-1.01,2.72,-8.83,1.81,-1.80,-0.88,0.68
40279,-1.01,1.00,-9.56,-2.51,0.28,-1.00,0.71
40324,-0.96,0.25,-8.58,6.59,0.99,0.27,0.38
40370,-0.98,-0.17,-8.68,7.38,-0.54,1.68,-0.60
40415,-1.02,1.44,-9.57,4.34,-2.75,-1.07,-0.89
40469,-1.05,3.06,-9.50,-1.50,-0.56,-0.09,0.02
40519,-1.02,2.81,-9.42,-0.80,0.37,0.61,0.29
40565,-0.94,0.79,-9.32,4.47,0.99,0.81,0.14
40611,-0.88,0.53,-9.15,0.90,0.40,0.15,-0.47
40657,-0.89,3.13,-9.84,3.51,0.39,-0.04,-0.67
40705,-0.94,0.63,-9.38,-0.18,0.84,0.41,0.07
40750,-0.85,1.35,-9.32,4.31,0.20,-0.09,0.35
40796,-0.87,1.80,-9.06,3.85,-0.85,-0.39,0.22
40841,-0.90,3.46,-9.59,1.75,0.41,-0.01,0.02
40887,-0.88,2.23,-8.93,3.12,0.31,-0.08,0.31
40932,-0.87,2.89,-8.93,3.47,0.24,-0.03,0.18
40986,-0.91,2.10,-9.59,3.82,-0.34,0.17,0.10
41038,-0.88,0.24,-9.62,3.78,-0.82,0.16,0.34
41083,-0.88,2.39,-8.91,1.36,-1.11,0.38,0.66
41129,-0.82,3.97,-9.71,1.65,-0.53,-0.42,-0.51
41174,-0.88,-0.13,-8.94,6.40,-0.80,-0.89,-0.40
41222,-0.85,4.73,-10.05,-1.69,-1.50,-0.86,-0.06
41268,-0.90,2.91,-10.09,-2.54,-0.05,0.71,0.65
41314,-0.99,1.68,-9.77,1.74,0.08,0.84,0.56
41359,-1.06,0.36,-9.59,2.20,-0.40,-0.11,0.28
41405,-1.04,4.42,-9.83,-0.23,-0.73,-0.13,-0.25
41450,-0.99,1.15,-9.75,-2.04,0.16,-0.20,0.30
41504,-1.01,1.43,-9.86,-0.40,0.10,0.10,0.37
41555,-1.07,0.06,-8.72,2.43,1.21,0.22,-0.67
41601,-1.04,1.39,-9.65,1.40,-0.21,0.09,0.05
41646,-1.06,1.75,-9.64,-1.10,0.47,-0.35,-0.28
41692,-1.01,1.36,-9.82,1.64,-0.17,-0.03,-0.01
41740,-1.13,3.35,-9.76,0.79,0.18,0.33,-0.04
41785,-0.94,1.81,-9.92,0.37,-0.32,0.32,0.11
41831,-0.97,0.73,-9.42,0.73,0.05,0.53,0.12
41876,-0.95,2.01,-9.74,1.53,0.02,0.98,0.27
41922,-0.87,1.75,-9.63,1.44,-0.27,0.93,0.26
41967,-0.86,-0.25,-9.48,2.32,-0.16,0.73,0.44
42022,-0.91,1.97,-9.83,0.55,0.12,1.08,-0.31
42072,-0.98,1.80,-9.83,1.24,-0.26,0.03,-0.16
42118,-0.94,1.42,-9.62,1.33,-0.06,0.02,-0.12
42163,-0.90,2.30,-9.77,1.53,-0.14,-0.00,0.13
42209,-0.86,1.02,-9.82,0.74,-0.12,-0.05,0.17
42254,-0.87,1.56,-9.84,1.45,-0.08,0.45,0.05
42302,-0.86,0.90,-9.94,0.08,-0.62,0.43,0.37
42348,-0.85,0.67,-9.08,0.19,-0.18,0.18,0.16
42393,-0.86,-0.23,-9.61,2.83,0.03,-0.14,0.08
42439,-0.89,0.95,-9.77,0.94,-0.22,-0.27,0.02
42484,-0.89,1.41,-9.93,0.23,0.02,-0.13,-0.03
42539,-0.91,0.40,-9.79,1.63,-0.07,-0.06,-0.00
42589,-0.91,2.04,-9.83,0.69,0.17,0.09,-0.11
42635,-0.91,0.51,-10.04,-0.34,-0.01,-0.03,-0.06
42680,-0.97,0.46,-9.63,1.94,0.69,0.04,-0.10
42726,-1.02,0.68,-9.72,1.53,-0.23,-0.02,-0.08
42771,-1.02,3.77,-10.24,-4.43,-0.15,0.04,-0.17
42819,-1.01,0.06,-9.67,2.78,0.13,0.24,-0.03
42865,-1.07,1.88,-9.62,1.15,-0.22,-0.15,-0.22
42910,-0.92,1.39,-9.63,2.39,0.04,0.14,-0.02
42956,-0.89,1.67,-9.83,0.83,-0.10,-0.24,-0.11
43002,-0.84,1.21,-9.73,1.57,-0.10,-0.05,0.07
43056,-0.89,2.07,-9.92,-0.26,0.08,0.61,0.09
43106,-0.87,1.44,-9.65,1.94,-0.06,0.08,0.14
43152,-0.94,0.13,-9.73,1.77,-0.30,0.17,0.06
43197,-0.91,1.12,-9.79,0.77,0.06,0.15,0.10
43243,-1.01,1.20,-9.78,1.34,0.07,-0.14,0.10
43288,-0.89,1.18,-9.79,1.02,-0.14,0.04,0.05
43336,-0.96,0.71,-9.72,1.88,0.03,-0.19,0.06
43382,-0.90,1.26,-9.69,2.03,0.10,0.05,0.04
43428,-0.94,1.76,-9.89,1.34,0.08,-0.01,0.07
43474,-0.99,1.80,-9.70,1.22,-0.05,0.15,0.02
43519,-1.02,1.22,-9.50,2.64,-0.13,-0.19,0.04
43573,-0.96,1.12,-10.09,-0.90,-0.00,0.23,0.11
43623,-0.86,0.97,-9.96,0.71,0.19,0.15,0.10
43669,-0.79,-1.09,-9.54,3.85,0.07,-0.34,0.07
43714,-0.81,1.86,-10.22,-2.09,-0.73,-0.45,-0.12
43760,-0.83,1.03,-10.10,0.41,-0.10,0.30,0.11
43806,-0.73,0.26,-9.66,1.57,0.09,0.16,0.00
43855,-0.73,0.99,-9.51,1.30,0.13,-0.05,-0.01
43900,-0.61,0.85,-9.73,2.08,-0.05,0.04,0.04
43946,-0.57,0.48,-10.01,0.49,-0.19,-0.04,0.02
43991,-0.67,0.77,-9.60,4.00,-0.02,-0.01,-0.07
44037,-0.63,1.82,-9.86,0.22,0.07,-0.74,-0.02
44090,-0.60,1.94,-9.68,0.20,0.09,-0.37,0.03
44141,-0.63,1.70,-9.74,2.40,0.32,0.73,-0.10
44186,-0.57,0.44,-9.46,2.64,0.04,-0.14,0.13
44232,-0.54,1.90,-9.49,3.26,-0.33,0.02,0.04
44277,-0.52,2.11,-9.81,0.55,-0.20,-0.07,0.12
44324,-0.57,1.09,-9.69,1.36,-0.27,0.01,0.15
44372,-0.55,0.50,-9.59,2.36,-0.32,-0.87,0.23
44418,-0.55,0.69,-9.82,0.60,-0.35,-0.47,0.15
44463,-0.62,1.24,-9.83,-0.18,-0.25,-0.06,0.12
44509,-0.56,0.68,-9.98,-0.04,-0.03,0.17,0.09
44555,-0.52,0.98,-9.78,1.92,0.30,0.50,0.12
44609,-0.57,1.08,-10.19,-2.88,-0.17,0.66,0.04
44659,-0.52,-0.08,-9.84,1.49,0.16,0.81,0.05
44705,-0.56,-1.30,-9.56,3.56,-0.58,-0.05,-0.25
44752,-0.67,0.64,-9.91,-0.11,-0.03,-0.13,-0.14
44798,-0.57,1.24,-9.80,2.36,0.08,-0.08,-0.12
44844,-0.63,1.65,-9.67,1.49,0.19,-0.43,-0.13
44889,-0.64,-1.10,-10.27,-1.19,0.32,0.14,-0.14
44937,-0.68,2.76,-9.69,2.05,0.07,0.24,0.09
44983,-0.69,0.10,-9.55,3.48,-0.12,1.50,-0.12
45028,-0.61,-2.63,-10.64,-2.32,-0.26,-0.12,0.03
45074,-0.69,1.44,-9.73,-0.03,0.22,-0.08,-0.23
45128,-0.67,1.48,-9.67,3.05,0.18,-0.06,0.02
45180,-0.69,1.36,-9.55,2.46,-0.58,0.08,0.07
45226,-0.65,1.54,-9.99,-1.10,0.04,0.22,0.08
45273,-0.66,0.54,-9.89,-0.33,0.05,0.17,0.11
45319,-0.60,-0.78,-9.67,2.77,-0.35,0.38,-0.07
45366,-0.57,1.66,-9.76,0.84,-0.14,0.27,-0.05
45413,-0.64,-0.02,-9.83,1.70,-0.24,0.27,-0.00
45462,-0.63,1.52,-9.86,1.30,-0.13,0.14,-0.01
45509,-0.64,1.49,-9.79,0.66,-0.03,-0.07,0.01
45556,-0.56,1.16,-9.79,0.63,0.02,-0.03,0.01
45603,-0.62,0.46,-9.83,2.16,-0.03,-0.18,0.04
45657,-0.62,0.37,-9.88,0.84,0.18,-0.04,-0.05
45707,-0.53,-0.36,-10.17,-2.57,-0.09,-0.17,-0.26
45753,-0.62,2.06,-9.74,1.29,-0.08,-0.24,-0.16
45799,-0.74,1.60,-9.72,0.58,0.16,0.16,-0.01
45844,-0.73,3.08,-9.46,3.06,-0.03,-0.09,-0.02
45890,-0.69,2.19,-9.70,0.94,-0.18,-0.05,0.09
45936,-0.65,0.34,-9.94,0.70,-0.34,0.38,-0.04
45985,-0.62,1.96,-9.86,-0.97,-0.10,0.21,-0.19
46032,-0.63,1.80,-9.74,1.61,0.04,0.20,-0.05
46078,-0.67,2.57,-9.66,2.52,-0.05,-0.06,-0.03
46124,-0.64,1.84,-9.88,-0.11,-0.33,-0.03,-0.01
46179,-0.71,1.31,-10.08,0.62,-0.10,0.02,0.13
46230,-0.63,1.17,-9.84,1.13,0.02,0.09,0.04
46276,-0.59,2.58,-9.84,-0.06,-0.16,-0.12,-0.03
46322,-0.58,2.59,-9.80,0.39,-0.06,0.34,0.02
46369,-0.58,-0.05,-9.96,2.23,-0.05,0.46,0.12
46416,-0.58,1.91,-9.84,-0.26,-0.08,0.05,0.05
46462,-0.61,1.72,-9.98,-0.22,-0.20,0.29,0.06
46511,-0.65,0.34,-9.67,0.06,-0.17,0.56,-0.03
46557,-0.73,1.76,-9.83,0.11,-0.07,0.04,-0.03
46604,-0.73,2.37,-9.88,1.25,-0.07,0.10,-0.02
46650,-0.68,1.84,-9.82,1.20,-0.07,0.08,0.08
46704,-0.68,0.95,-9.76,0.36,-0.14,0.03,0.06
46756,-0.72,0.73,-9.96,0.20,-0.01,-0.04,-0.02
46803,-0.63,1.27,-9.83,0.74,0.23,-0.08,-0.11
46847,-0.60,1.94,-9.89,-0.47,0.32,-0.31,-0.15
46893,-0.63,2.35,-9.81,0.93,-0.01,-0.09,-0.03
46938,-0.74,2.44,-9.82,0.34,-0.01,0.03,0.04
46984,-0.71,2.40,-9.74,1.33,-0.21,0.00,0.12
47033,-0.68,0.90,-9.86,-0.37,-0.19,0.14,0.14
47079,-0.68,0.47,-9.74,1.31,-0.29,0.24,-0.03
47125,-0.56,2.00,-9.84,0.49,-0.08,0.28,0.03
47171,-0.56,1.29,-9.88,1.17,-0.30,0.30,0.07
47227,-0.61,2.95,-9.79,1.40,-0.20,0.01,0.07
47278,-0.57,1.92,-9.91,-0.56,-0.07,-0.14,0.13
47324,-0.53,0.08,-9.93,0.72,0.10,-0.32,0.10
47370,-0.62,1.05,-9.86,0.19,0.46,-0.58,-0.04
47416,-0.67,1.50,-9.92,1.54,0.22,-1.50,-0.08
47461,-0.67,3.97,-9.89,-0.74,0.45,-1.39,0.01
47507,-0.62,-0.93,-9.76,0.57,0.42,-0.26,0.31
47555,-0.60,0.83,-9.78,0.28,-0.27,0.03,-0.06
47601,-0.62,6.34,-9.47,4.35,-0.29,-0.71,0.12
47646,-0.63,-1.25,-10.41,-1.29,0.65,-2.54,0.49
47692,-0.72,0.09,-9.66,1.63,0.26,-0.43,-0.44
47747,-0.73,6.81,-9.11,3.02,-0.33,0.09,-0.17
47797,-0.67,1.63,-9.81,0.35,-0.07,0.25,0.07
47842,-0.71,2.73,-9.66,1.32,-0.19,0.09,0.00
47888,-0.66,2.23,-9.94,0.69,-0.18,0.29,0.05
47933,-0.69,1.36,-9.74,1.62,-0.61,0.12,-0.01
47979,-0.64,1.51,-10.13,-1.43,-0.25,-0.11,-0.04
48025,-0.61,1.33,-9.96,-0.83,-0.14,-0.12,-0.12
48073,-0.58,2.59,-9.83,0.18,0.12,-0.17,0.04
48119,-0.53,2.72,-9.87,0.59,0.04,-0.17,0.14
48165,-0.54,2.04,-9.67,1.11,0.09,-0.04,0.03
48211,-0.38,2.04,-9.88,0.85,0.07,-0.03,0.06
48264,-0.44,2.67,-9.56,1.55,0.53,0.13,0.15
48315,-0.44,1.02,-9.72,1.92,-0.11,0.04,0.09
48360,-0.47,1.68,-9.70,1.05,-0.18,0.16,0.06
48406,-0.47,1.51,-9.70,-0.08,-0.11,-0.03,0.02
48451,-0.58,1.80,-9.90,0.13,-0.04,-0.01,-0.01
48497,-0.53,1.59,-9.77,1.26,-0.01,0.02,0.00
48542,-0.51,2.91,-9.73,1.63,-0.17,0.03,0.02
48591,-0.57,2.35,-9.82,0.34,-0.08,-0.03,0.05
48637,-0.49,1.46,-9.84,0.68,0.04,0.09,0.06
48682,-0.50,2.16,-9.79,1.11,0.03,-0.06,0.08
48728,-0.49,1.80,-9.79,1.06,-0.02,0.05,0.10
48781,-0.50,0.88,-9.98,-0.94,0.10,0.09,0.16
48832,-0.54,1.14,-9.69,2.25,-0.12,-0.06,0.17
48877,-0.66,1.95,-9.87,-0.28,-0.02,-0.64,0.28
48923,-0.67,-7.19,-10.64,6.72,1.06,0.03,1.10
48968,-0.63,-0.14,-9.86,0.65,-0.15,0.06,0.26
49014,-0.67,0.74,-9.89,-0.63,-0.14,0.06,0.24
49060,-0.70,1.62,-9.72,4.56,0.02,0.37,0.15
49106,-0.68,0.85,-9.88,-0.33,-0.21,0.51,0.05
49154,-0.63,0.02,-11.27,1.05,-0.24,0.10,0.18
49199,-0.63,0.14,-9.48,4.62,0.17,0.58,0.51
49245,-0.59,-1.93,-9.76,0.18,-0.14,0.27,0.43
49299,-0.52,-0.45,-9.87,0.16,-0.13,0.12,0.15
49349,-0.53,-0.76,-9.84,1.10,-0.03,0.07,0.12
49394,-0.58,0.62,-9.78,0.85,-0.05,0.19,0.12
49440,-0.64,-0.59,-9.85,0.49,-0.04,0.15,0.16
49486,-0.62,-0.38,-9.83,0.69,0.02,0.09,0.16
49532,-0.57,-0.70,-9.75,1.13,0.03,0.23,0.08
49577,-0.63,-0.72,-10.00,1.08,0.04,0.30,0.03
49623,-0.63,-0.02,-9.66,1.91,-0.04,0.30,0.05
49671,-0.56,-1.29,-9.78,1.37,-0.13,0.17,0.01
49716,-0.58,-0.88,-9.81,0.16,-0.08,-0.04,-0.06
49762,-0.48,-0.33,-9.85,0.31,-0.04,0.05,-0.07
49816,-0.44,-0.11,-9.81,0.61,0.02,-0.03,-0.06
49866,-0.50,-0.11,-9.82,1.29,0.01,0.02,-0.04
49913,-0.46,0.01,-9.88,0.18,0.03,-0.03,-0.03
49958,-0.52,-0.45,-9.81,0.62,0.09,-0.02,-0.01
50004,-0.54,0.61,-9.84,0.53,0.14,-0.05,-0.00
50049,-0.51,0.60,-9.65,1.92,0.09,-0.11,0.11
50095,-0.59,-1.02,-9.71,1.39,0.00,-0.18,0.10
50140,-0.54,-0.21,-9.89,0.10,0.12,-0.08,0.05
50188,-0.46,0.07,-9.71,1.49,0.21,-0.01,0.08
50234,-0.46,-0.69,-9.58,2.48,0.20,0.10,0.09
50279,-0.47,0.40,-9.61,2.29,0.07,0.16,0.08
50333,-0.41,-0.01,-9.54,2.65,-0.06,0.22,0.16
50384,-0.46,-0.64,-9.63,1.27,-0.15,0.12,0.14
50430,-0.43,-1.09,-9.80,1.24,-0.02,0.16,0.14
50475,-0.48,-1.33,-9.58,1.75,-0.08,-0.02,0.06
50521,-0.48,-1.21,-9.69,1.42,-0.10,0.09,-0.02
50566,-0.52,-1.00,-9.74,0.57,-0.09,-0.01,-0.06
50612,-0.47,-1.77,-9.73,1.02,0.03,0.04,-0.20
50657,-0.55,-0.26,-9.59,2.51,0.03,0.03,-0.28
50705,-0.60,1.40,-9.35,4.18,-0.09,0.25,-0.10
50751,-0.52,-2.81,-9.38,3.96,-0.60,-0.09,-0.07
50796,-0.48,-1.37,-10.15,-3.29,-0.49,-0.29,-0.27
50851,-0.51,-0.53,-10.05,-1.20,0.11,-0.27,-0.37
50902,-0.64,2.32,-9.61,2.06,0.14,0.01,-0.28
50947,-0.65,1.93,-9.58,2.76,-0.06,0.05,-0.08
50993,-0.63,0.69,-9.70,2.29,-0.18,-0.03,0.04
51038,-0.58,0.39,-9.68,2.49,-0.28,0.06,0.03
51084,-0.61,-0.22,-9.77,1.57,-0.39,0.03,0.04
51129,-0.62,0.04,-9.86,0.32,-0.40,0.03,-0.01
51175,-0.68,0.70,-10.00,-1.21,-0.26,0.08,0.01
51223,-0.63,-0.11,-9.95,-1.70,-0.03,0.05,0.07
51269,-0.69,1.23,-9.89,-0.15,0.19,-0.08,0.06
51315,-0.62,-0.95,-9.95,0.54,0.21,-0.15,0.16
51369,-0.84,0.93,-9.75,1.51,0.22,-0.23,0.04
51420,-0.74,0.01,-9.82,0.88,0.19,0.01,-0.00
51465,-0.69,-0.80,-9.76,1.72,0.18,-0.25,-0.03
51511,-0.75,-0.04,-9.61,2.24,0.12,-0.26,-0.14
51556,-0.61,1.39,-9.44,2.59,-0.28,-0.15,-0.13
51602,-0.56,1.23,-9.41,1.26,-0.12,-0.24,-0.06
51647,-0.58,-0.90,-9.99,1.02,0.06,0.10,-0.10
51693,-0.53,0.34,-10.06,-1.03,0.04,0.08,-0.13
51741,-0.58,1.77,-9.96,1.02,-0.20,0.12,-0.11
51787,-0.48,3.23,-9.62,-0.01,0.41,-0.85,0.34
51834,-0.59,-0.58,-9.58,4.41,0.02,-1.17,0.28
51888,-0.59,0.09,-9.65,1.53,-0.47,0.18,0.01
51938,-0.63,0.33,-9.75,0.04,0.02,0.05,0.06
51984,-0.55,0.15,-9.66,2.36,-0.08,0.19,-0.07
52030,-0.52,0.51,-9.78,1.92,-0.14,0.04,-0.09
52075,-0.60,0.79,-9.83,0.42,-0.01,0.02,-0.08
52121,-0.57,0.79,-10.01,-0.45,-0.07,0.16,-0.13
52167,-0.60,0.94,-9.75,3.73,-0.05,-0.22,-0.09
52214,-0.55,1.19,-9.80,1.93,-0.23,-0.43,-0.15
52264,-0.59,1.42,-9.90,1.67,0.12,-1.66,0.15
52310,-0.55,1.34,-9.58,4.19,0.02,-0.22,0.13
52356,-0.49,0.96,-9.82,0.62,-0.10,0.19,0.00
52410,-0.49,1.31,-9.72,1.59,0.25,0.37,-0.03
52460,-0.45,1.13,-9.60,2.23,0.03,0.23,-0.09
52506,-0.54,0.63,-9.73,1.56,-0.03,-0.08,-0.04
52552,-0.59,1.84,-9.73,2.05,-0.12,0.15,0.00
52599,-0.55,0.51,-9.64,1.60,0.08,0.16,0.01
52646,-0.64,0.54,-9.75,1.45,-0.06,0.05,0.00
52692,-0.63,0.37,-9.62,2.68,-0.28,0.16,-0.09
52738,-0.60,0.44,-9.75,0.64,-0.18,0.25,-0.00
52784,-0.60,1.04,-9.83,0.57,-0.17,0.20,-0.14
52834,-0.75,1.33,-9.68,1.97,-0.07,0.27,-0.01
52880,-0.74,0.56,-9.71,0.45,-0.15,0.11,0.03
52935,-0.81,1.47,-9.69,1.72,-0.21,0.03,0.05
52987,-0.90,0.57,-9.79,0.68,-0.02,0.13,0.02
53033,-0.81,1.53,-9.79,2.27,-0.11,0.17,0.09
53080,-0.73,1.56,-9.63,2.48,-0.10,0.46,-0.01
53126,-0.61,-0.37,-9.74,1.23,-0.36,0.09,0.03
53173,-0.67,2.00,-9.80,-0.05,-0.43,-0.43,-0.01
53220,-0.65,0.62,-9.84,2.09,0.02,-0.08,0.03
53266,-0.64,0.91,-9.78,2.02,-0.18,0.55,-0.09
53313,-0.71,0.14,-9.96,1.19,-0.05,-0.39,-0.19
53362,-0.74,1.45,-9.74,0.21,-0.55,-0.87,-0.54
53409,-0.79,1.63,-9.93,-0.18,0.13,-0.93,-0.05
53464,-0.86,2.96,-9.85,1.35,-0.01,0.07,0.03
53515,-0.93,1.19,-9.69,0.56,0.22,-0.29,0.19
53561,-0.88,0.49,-9.89,0.85,0.03,-0.44,0.08
53606,-0.77,0.19,-9.94,-0.18,-0.08,-0.03,0.08
53652,-0.62,2.70,-9.80,1.70,-0.30,-0.20,0.04
53698,-0.58,2.34,-9.76,-0.36,-0.31,-0.03,-0.04
53744,-0.45,1.13,-9.93,-0.56,0.02,-0.21,0.03
53790,-0.35,1.69,-9.82,0.25,0.09,-0.04,0.09
53836,-0.38,1.44,-9.85,0.92,0.01,0.02,-0.02
53885,-0.44,2.43,-9.38,0.59,0.51,0.16,0.04
53931,-0.51,0.50,-9.85,2.19,-0.14,0.30,-0.08
53984,-0.56,2.33,-9.90,-2.29,-0.10,0.25,-0.11
54035,-0.52,1.91,-9.88,-0.21,-0.07,0.18,0.01
54080,-0.63,1.60,-9.76,2.63,-0.02,0.11,0.02
54126,-0.55,0.96,-9.73,1.21,0.06,0.03,0.02
54172,-0.55,2.02,-9.76,0.99,-0.24,-0.02,-0.08
54218,-0.51,1.40,-9.81,0.20,-0.06,0.08,0.04
54265,-0.61,1.40,-9.88,2.29,-0.36,0.31,-0.19
54312,-0.58,0.69,-9.82,0.98,0.06,-0.07,0.05
54358,-0.64,2.00,-9.74,0.40,0.00,-0.13,-0.02
54407,-0.64,2.00,-9.72,1.51,-0.21,0.20,-0.07
54453,-0.61,1.57,-9.67,1.38,-0.07,-0.10,0.06
54507,-0.67,1.44,-9.85,1.70,-0.12,0.03,-0.03
54559,-0.64,2.64,-9.77,0.45,-0.12,0.08,0.05
54606,-0.73,2.70,-9.70,0.56,-0.03,0.24,0.04
54652,-0.72,1.48,-9.87,0.73,-0.40,0.21,0.08
54698,-0.79,2.11,-10.10,1.50,-0.93,0.59,0.21
54744,-0.65,1.91,-9.99,0.87,-0.34,0.12,0.37
54789,-0.72,0.84,-9.80,-2.82,-0.78,0.40,0.31
54835,-0.85,0.48,-10.05,-0.11,0.33,-0.03,0.09
54880,-0.83,1.90,-9.96,2.04,0.06,0.25,-0.06
54928,-0.82,1.63,-9.83,1.55,0.28,-0.00,-0.02
54974,-0.82,0.88,-9.84,0.13,-0.03,-0.22,0.03
55027,-0.88,3.40,-10.08,2.40,-0.11,-0.11,0.24
55079,-0.91,-4.30,-9.55,-2.38,-0.44,0.22,0.11
55124,-0.92,0.64,-9.92,2.22,-0.61,-0.00,0.21
55170,-0.89,0.02,-9.82,-1.93,-0.61,-0.01,0.17
55216,-0.98,-0.37,-9.68,-3.56,-0.32,-0.11,0.04
55261,-0.86,-0.21,-9.86,-4.20,-0.07,0.11,-0.08
55307,-0.89,0.72,-9.76,-2.95,0.34,0.33,-0.17
55352,-0.88,4.30,-10.22,4.88,-0.46,0.43,0.00
55398,-0.95,1.33,-9.97,-0.03,-0.15,0.88,0.15
55446,-0.96,1.54,-9.60,-1.55,-0.25,-0.20,0.04
55491,-0.92,1.75,-10.20,-0.26,-0.01,0.42,0.18
55546,-0.85,0.85,-9.99,1.04,-0.07,0.14,0.18
55596,-0.83,1.28,-10.07,-1.96,-0.44,0.24,0.21
55642,-0.87,0.06,-9.66,-1.51,-0.06,0.23,0.20
55688,-0.81,0.80,-9.88,-0.30,-0.02,0.21,0.36
55733,-0.78,1.69,-10.06,-1.43,-0.16,0.24,0.19
55779,-0.89,-0.25,-10.23,-0.07,0.13,0.45,0.42
55824,-0.81,1.01,-9.39,1.71,-0.48,-0.03,-0.13
55870,-0.80,0.89,-9.96,0.12,-0.20,0.22,0.31
55915,-0.94,-1.53,-9.82,-1.10,-0.23,0.35,0.23
55963,-0.83,0.19,-9.92,-0.30,-0.30,0.02,0.12
56009,-0.78,-0.15,-9.82,-2.24,-0.28,-0.05,0.14
56064,-0.70,-1.30,-9.83,-2.94,-0.07,0.04,0.07
56114,-0.71,0.92,-10.00,-3.03,0.11,0.12,-0.03
56160,-0.81,1.22,-9.91,-0.43,0.01,-0.02,0.00
56205,-0.97,-1.00,-9.86,-1.63,-0.05,0.15,-0.04
56251,-0.93,0.43,-10.05,-0.07,0.03,-0.20,-0.12
56296,-0.92,-1.25,-10.02,0.55,-0.00,-0.48,-0.01
56342,-0.93,0.09,-10.00,-2.67,0.06,-0.12,-0.10
56388,-0.83,1.43,-10.02,-0.21,0.01,0.01,-0.03
56433,-0.90,0.69,-9.95,-1.79,0.03,0.15,0.10
56481,-0.83,0.40,-10.07,-0.14,0.04,0.34,0.13
56528,-0.88,0.21,-10.11,0.05,-0.18,0.44,0.23
56581,-0.92,-2.70,-9.87,-1.72,-0.05,0.06,-0.04
56632,-0.84,0.66,-9.92,-1.41,0.09,0.24,-0.19
56677,-0.91,1.91,-9.96,-0.38,0.12,0.05,-0.02
56723,-0.89,1.17,-9.96,0.04,-0.02,-0.02,0.15
56768,-0.95,0.81,-9.96,0.76,-0.13,0.06,0.19
56814,-0.91,0.17,-9.88,0.52,-0.32,0.04,0.26
56859,-0.90,-1.36,-9.79,-1.13,-0.39,0.13,0.24
56905,-0.90,-3.95,-9.73,-2.15,-0.10,0.27,-0.09
56951,-0.92,0.73,-9.93,-1.37,-0.02,0.01,-0.16
57000,-0.92,1.32,-9.74,-2.50,-0.03,-0.08,-0.03
57045,-0.96,-1.13,-9.94,-1.36,0.14,0.04,0.04
57099,-0.87,0.79,-9.84,-0.16,0.06,-0.04,0.05
57149,-0.77,-0.82,-10.00,-0.99,-0.16,-0.01,-0.08
57195,-0.86,0.48,-9.90,-2.56,-0.00,0.16,-0.10
57241,-0.94,-0.34,-9.84,-0.86,-0.03,-0.05,-0.03
57286,-0.84,1.13,-9.90,-0.19,0.06,0.09,0.13
57332,-0.76,-0.27,-9.97,-1.19,-0.16,-0.03,-0.05
57377,-0.83,-0.80,-9.88,-0.23,-0.15,-0.02,-0.20
57424,-0.92,0.34,-9.95,-2.43,-0.05,0.02,-0.05
57469,-0.93,1.14,-9.92,-1.47,0.11,-0.03,0.09
57518,-0.99,0.20,-9.83,-2.15,-0.06,-0.04,-0.04
57563,-1.06,-0.02,-9.96,-0.81,0.10,0.05,-0.06
57617,-1.07,1.82,-9.93,-2.54,0.37,-0.06,0.06
57667,-1.15,0.11,-9.92,1.52,-0.14,0.02,-0.12
57713,-1.03,1.74,-10.02,-1.12,-0.09,-0.06,0.07
57759,-1.00,-1.22,-10.12,-0.10,-0.13,-0.14,0.20
57804,-1.03,0.37,-8.67,-6.11,-0.17,-0.33,0.26
57851,-1.00,-1.22,-9.83,-2.32,0.06,0.09,-0.18
57896,-1.08,0.72,-9.96,-0.51,0.21,0.16,-0.27
57942,-0.96,2.39,-9.84,-0.00,0.16,0.13,-0.12
57987,-0.96,1.41,-9.92,-0.75,0.09,-0.03,0.05
58035,-0.95,0.36,-9.95,-0.40,0.14,0.05,0.02
58081,-1.00,1.02,-9.81,0.40,0.03,-0.07,0.05
58135,-1.02,-0.74,-10.04,-1.72,-0.03,0.04,-0.02
58185,-1.08,-1.23,-9.84,-0.58,0.27,-0.80,-0.09
58231,-0.99,2.49,-9.84,1.20,-0.08,-0.01,-0.11
58277,-1.00,1.37,-10.06,-0.69,0.09,0.28,0.12
58323,-1.04,0.94,-9.89,-0.75,-0.16,0.75,0.05
58368,-1.13,0.41,-9.95,0.36,0.22,0.15,0.13
58414,-1.20,-0.07,-10.04,0.52,-0.11,0.04,0.21
58459,-1.31,-0.16,-9.91,-0.82,-0.22,0.07,-0.06
58505,-1.36,0.73,-9.90,-1.33,-0.04,0.10,-0.05
58553,-1.41,0.14,-10.00,0.92,0.17,0.05,-0.08
58599,-1.38,1.38,-9.99,0.54,-0.24,0.12,-0.14
58653,-1.27,1.35,-10.12,1.02,-0.12,0.24,0.22
58704,-1.28,-0.98,-9.47,-0.40,-0.37,0.78,0.40
58750,-1.17,0.57,-9.90,0.99,-0.48,0.09,0.07
58795,-1.17,0.57,-9.91,-1.45,-0.46,0.23,0.10
58841,-1.22,0.02,-9.88,-2.24,-0.28,0.27,0.11
58886,-1.26,-1.22,-9.90,-3.87,-0.06,0.14,-0.00
58932,-1.20,-0.09,-9.95,-2.04,0.04,0.12,-0.19
58977,-1.11,1.35,-9.91,2.15,-0.05,-0.05,0.06
59023,-0.95,0.69,-9.94,-0.24,-0.01,-0.05,0.12
59071,-1.02,0.77,-9.77,-1.05,-0.13,-0.07,0.04
59117,-1.05,1.58,-9.96,-0.98,-0.16,-0.07,-0.02
59171,-1.08,0.38,-9.96,-1.95,-0.09,-0.09,0.10
59222,-1.08,-0.06,-9.94,-0.50,-0.05,0.06,0.08
59267,-0.93,-0.05,-9.96,-0.75,-0.17,0.13,0.09
59313,-0.97,-1.24,-9.87,-1.53,-0.11,0.14,-0.01
59358,-0.97,1.75,-10.06,-0.91,-0.08,-0.04,-0.01
59404,-0.96,-0.15,-9.88,-1.67,-0.02,0.07,0.07
59449,-0.86,1.53,-9.89,0.54,-0.17,0.03,0.10
59495,-0.92,-0.32,-9.88,-2.50,-0.16,-0.01,0.11
59541,-0.87,-1.24,-9.90,-2.29,-0.02,-0.01,0.01
59589,-0.87,0.10,-9.86,-1.85,0.09,-0.00,-0.14
59634,-0.90,1.70,-9.92,-0.69,0.09,0.02,-0.11
59689,-0.96,0.40,-9.93,-0.48,0.01,0.03,0.02
59739,-0.99,0.62,-9.90,-0.12,-0.11,0.02,0.01
59785,-0.99,0.93,-9.93,-0.78,-0.15,-0.02,0.05
59830,-1.02,-0.29,-9.90,-1.72,-0.20,-0.11,0.04
59876,-0.94,0.67,-9.89,-1.35,-0.14,-0.00,-0.02
59921,-1.02,0.71,-9.84,-1.44,-0.12,-0.08,0.07
59967,-1.07,0.33,-9.90,-1.84,-0.05,0.00,0.10
60013,-1.00,-0.60,-9.90,-0.94,-0.06,-0.06,0.03
60058,-1.08,-0.18,-9.90,-1.03,-0.10,-0.04,-0.03
60106,-1.02,0.08,-9.91,-1.29,-0.09,-0.04,-0.09
60153,-1.06,0.81,-9.93,-1.42,-0.08,0.04,-0.08
60207,-0.99,1.37,-9.92,-0.68,-0.13,0.00,0.03
60257,-0.98,0.53,-9.89,-1.35,-0.17,-0.05,0.12
60303,-1.00,0.07,-9.89,-1.45,-0.17,-0.00,0.12
60348,-1.02,-1.26,-9.62,-3.07,-0.13,0.06,0.01
60394,-1.05,-0.45,-9.85,-2.42,0.01,0.16,-0.13
60439,-1.04,1.39,-9.87,-1.86,0.06,0.08,-0.10
60485,-1.02,0.30,-9.94,-1.43,0.09,0.08,-0.01
60530,-0.84,0.49,-9.91,-1.32,0.11,0.01,-0.04
60576,-0.86,-0.06,-9.92,-1.98,0.11,0.03,-0.06
60625,-0.86,0.32,-9.88,-1.12,0.18,0.03,-0.11
60671,-1.00,1.23,-9.99,-2.23,0.17,-0.23,-0.13
60724,-1.08,0.36,-9.94,-1.77,0.25,-0.06,-0.12
60775,-1.01,0.90,-9.89,0.26,0.26,-0.08,-0.10
60820,-1.03,0.62,-9.92,1.28,0.08,0.02,-0.13
60866,-1.03,1.60,-9.91,-0.48,-0.10,-0.05,-0.07
60911,-1.06,0.61,-9.49,-0.43,-0.07,0.02,-0.06
60957,-1.05,1.40,-9.93,-0.67,-0.10,-0.00,-0.06
61002,-1.10,0.85,-9.96,-6.08,0.03,0.00,0.00
61049,-1.13,0.75,-9.53,4.98,0.05,0.03,0.12
61094,-1.21,1.40,-9.86,0.49,-0.23,-0.05,0.00
61142,-1.07,1.08,-10.05,-1.02,-0.30,0.02,0.01
61188,-1.04,-0.91,-9.93,-0.54,-0.05,0.03,0.09
61242,-0.99,0.07,-9.91,1.06,0.12,0.05,0.08
61292,-1.05,1.30,-9.90,-1.09,-0.12,0.02,0.01
61337,-0.95,0.92,-9.95,-1.37,-0.05,0.02,0.06
61383,-0.88,2.37,-10.08,-2.88,-0.14,-0.02,0.06
61429,-0.95,-1.44,-9.63,-0.72,0.13,0.00,0.02
61475,-0.97,0.25,-9.98,-1.71,0.06,0.07,-0.13
61521,-1.00,1.41,-10.06,-1.26,-0.10,0.28,-0.28
61566,-1.07,1.40,-9.89,0.34,0.17,0.04,-0.05
61612,-0.98,2.11,-10.02,-0.11,0.02,0.03,0.02
61660,-0.95,-0.64,-10.12,-0.72,-0.08,0.08,-0.07
61705,-0.91,-0.22,-10.06,-1.05,0.10,0.27,-0.40
61759,-0.92,6.75,-9.61,-1.70,-0.29,-0.08,-0.18
61810,-0.86,3.14,-9.86,0.38,-0.05,0.02,0.05
61855,-0.83,0.22,-9.96,-1.41,-0.04,-0.03,-0.10
61902,-0.85,2.27,-9.76,0.85,0.12,0.02,0.22
61947,-0.81,0.86,-10.13,0.47,0.03,0.05,0.18
61993,-0.74,1.18,-9.87,-0.17,-0.30,-0.01,0.11
62038,-0.76,1.18,-9.82,-1.88,-0.15,0.01,-0.05
62084,-0.79,1.24,-9.97,0.09,0.02,0.07,0.09
62129,-0.79,3.51,-9.80,0.43,-0.20,-0.05,0.17
62177,-0.80,0.63,-9.94,-1.62,-0.32,-0.03,0.05
62223,-0.83,-0.65,-9.94,-2.26,-0.14,0.05,-0.20
62278,-0.87,2.67,-9.96,-0.25,0.10,0.05,-0.02
62329,-0.92,1.95,-10.03,-0.83,0.01,0.05,0.09
62374,-0.89,0.69,-9.84,-0.76,-0.07,0.01,-0.01
62420,-0.89,-0.21,-10.11,-1.59,-0.13,0.27,0.07
62466,-0.82,2.03,-9.96,3.18,-0.04,-0.05,0.02
62511,-0.91,0.58,-9.69,-2.25,-0.02,-0.21,0.07
62557,-0.88,0.79,-9.91,-0.44,-0.13,0.12,0.03
62602,-0.86,1.12,-9.98,-1.46,-0.03,0.09,0.04
62648,-0.84,1.83,-9.84,-1.24,-0.01,0.06,0.05
62696,-0.98,-1.22,-10.02,-0.37,-0.04,-0.08,0.00
62741,-1.01,2.45,-9.99,1.49,-0.11,0.06,-0.02
62795,-0.92,-0.11,-10.06,-5.00,-0.20,-0.09,0.03
62846,-0.95,1.58,-9.87,2.27,0.04,0.03,-0.10
62892,-0.95,1.22,-9.32,-3.64,0.03,0.19,0.11
62937,-0.94,1.16,-10.09,0.36,-0.11,0.00,0.04
62983,-0.97,2.02,-9.88,-1.67,-0.07,0.09,0.06
63028,-0.99,-1.25,-10.07,-1.02,0.07,-0.03,0.04
63074,-1.05,0.54,-9.90,-0.16,0.07,-0.01,-0.08
63120,-0.95,3.74,-9.79,-0.67,0.01,0.02,0.08
63165,-0.99,0.10,-10.03,-0.16,0.03,0.13,0.12
63213,-0.94,-0.37,-10.04,-0.25,0.07,-0.08,0.01
63259,-0.85,2.54,-10.03,0.30,-0.13,-0.13,-0.02
63313,-0.85,1.04,-10.21,-0.86,-0.04,0.06,0.01
63364,-0.94,1.40,-10.01,-0.54,-0.09,0.05,-0.00
63409,-0.91,1.77,-9.71,-0.11,0.00,0.06,0.04
63455,-0.94,1.06,-9.96,-0.07,-0.10,0.12,0.04
63500,-0.91,1.23,-9.88,0.54,0.00,0.01,0.06
63546,-0.97,0.76,-10.13,-1.68,-0.14,0.08,0.01
63591,-1.00,0.57,-10.25,0.58,-0.34,-0.05,-0.15
63637,-0.98,0.96,-10.23,-0.80,0.11,-0.03,0.02
63682,-0.91,1.36,-10.08,-1.47,-0.10,0.09,-0.03
63730,-0.96,1.43,-9.87,-0.78,-0.08,-0.12,-0.05
63776,-1.01,1.60,-10.05,-0.07,-0.13,-0.01,-0.03
63831,-1.01,0.24,-9.89,1.12,0.01,0.03,0.09
63881,-0.97,1.41,-10.09,-1.45,-0.09,-0.18,-0.03
63927,-0.93,-0.28,-10.01,0.49,-0.10,0.06,-0.04
63972,-0.80,2.71,-9.87,0.23,-0.11,-0.18,0.08
64018,-0.76,-0.61,-10.01,-2.08,-0.07,0.06,0.04
64063,-0.83,1.24,-9.96,-0.86,-0.17,0.03,-0.13
64109,-0.85,1.46,-9.78,-0.94,0.04,0.08,0.04
64154,-0.86,0.75,-9.96,-0.87,0.11,0.03,0.00
64200,-0.95,1.41,-10.04,0.75,-0.12,-0.08,-0.07
64249,-1.00,0.21,-9.93,-1.78,-0.06,-0.22,-0.09
64295,-1.05,1.04,-9.98,-0.07,0.01,-0.18,0.03
64348,-1.06,1.52,-9.62,-0.80,0.07,0.32,0.23
64399,-1.05,1.59,-9.90,0.04,-0.04,-0.01,0.16
64444,-1.05,1.07,-9.96,-1.10,-0.09,0.03,0.07
64490,-1.03,0.58,-10.07,-1.62,0.04,-0.33,-0.02
64535,-0.98,1.28,-9.75,-0.25,-0.02,0.04,-0.00
64581,-1.07,0.75,-9.89,-1.11,0.08,0.05,0.06
64626,-1.12,1.10,-9.92,-0.27,0.17,0.19,0.09
64672,-1.06,1.32,-9.86,-1.04,-0.05,-0.18,-0.26
64718,-1.01,1.68,-10.11,0.06,0.09,-0.20,-0.04
64767,-0.94,1.38,-9.82,-0.46,0.01,0.06,0.07
64812,-0.95,1.48,-9.92,-0.40,-0.28,0.07,-0.07
64866,-0.94,0.13,-9.70,0.89,-0.67,-0.04,-0.40
64916,-0.96,2.15,-9.79,-1.08,-0.28,-0.33,-0.10
64962,-1.00,2.20,-9.80,-2.13,0.26,-1.08,0.07
65007,-1.00,-0.04,-10.07,0.46,0.13,0.54,0.05
65053,-0.98,0.98,-10.15,-0.62,-0.17,-0.05,-0.13
65098,-1.01,1.91,-9.75,0.41,0.27,-0.17,0.01
65145,-0.97,0.41,-9.92,-4.14,0.16,-1.74,-0.25
65190,-1.02,1.73,-10.04,0.22,-0.09,-0.80,0.02
65236,-1.02,1.30,-10.13,-1.93,-0.17,-0.13,-0.10
65284,-1.02,1.58,-9.80,0.68,0.16,0.22,0.04
65330,-1.06,1.59,-9.87,-0.08,0.01,-0.03,-0.00
65383,-1.02,2.29,-9.83,-0.13,-0.03,0.12,0.02
65434,-0.97,1.39,-9.90,-0.94,0.00,-0.07,0.17
65479,-0.97,2.05,-9.95,-1.40,-0.08,0.03,0.11
65525,-0.97,1.83,-9.82,-0.20,-0.01,-0.06,0.18
65571,-1.01,0.15,-10.02,-0.85,0.04,0.09,0.18
65617,-1.01,2.57,-9.79,0.36,-0.03,-0.65,0.09
65662,-0.99,1.90,-9.88,-1.10,0.03,-0.14,0.17
65708,-0.90,0.38,-10.15,-0.25,0.19,-0.93,0.09
65753,-0.96,0.90,-9.87,-0.19,-0.09,-1.39,0.01
65802,-0.99,2.36,-9.85,-1.24,0.02,0.17,-0.05
65847,-1.01,1.92,-9.88,-0.12,-0.03,-0.03,-0.06
65901,-0.99,1.75,-9.83,0.23,0.35,-1.91,-0.00
65951,-0.94,1.38,-9.77,-0.28,0.20,0.20,0.05
65998,-0.97,0.69,-9.96,1.00,0.36,-0.01,-0.03
66043,-1.02,2.08,-10.15,0.40,0.04,0.28,0.06
66089,-1.09,1.00,-9.95,-0.23,0.00,0.09,0.06
66134,-1.06,2.83,-9.44,2.19,0.16,0.10,0.06
66180,-1.01,0.39,-9.94,-0.65,-0.07,0.04,-0.10
66225,-1.09,2.34,-9.93,1.70,0.34,0.07,0.27
66271,-1.01,0.21,-9.80,0.17,-0.41,0.03,-0.15
66319,-0.94,5.09,-10.73,6.20,-1.28,0.82,1.44
66364,-0.99,-5.99,-9.71,-5.10,0.08,-0.45,-0.25
66418,-1.07,1.46,-9.28,3.28,-0.23,-0.10,-0.17
66469,-1.04,2.11,-10.16,1.21,0.11,0.06,0.05
66515,-1.04,1.23,-9.89,-0.24,-0.16,0.12,0.04
66560,-1.04,1.44,-9.64,-0.47,-0.13,0.24,0.08
66606,-1.05,0.45,-9.88,-0.04,-0.54,-0.03,-0.11
66652,-1.14,0.20,-9.89,0.62,-0.64,-0.11,-0.05
66697,-1.09,0.02,-10.06,0.53,-0.09,-0.98,-0.11
66743,-1.17,2.35,-9.92,-3.53,-0.25,-0.25,-0.01
66788,-1.20,0.98,-10.06,-0.19,-0.13,-0.11,-0.22
66837,-1.17,-0.18,-9.99,0.38,-0.33,0.43,0.01
66882,-1.21,0.30,-9.95,-0.06,-0.41,-0.14,-0.10
66937,-1.33,1.89,-9.78,-1.91,0.43,-0.12,0.10
66987,-1.35,2.04,-9.89,0.72,-0.08,0.22,-0.12
67033,-1.20,2.14,-9.83,-1.25,-0.18,-0.25,-0.31
67078,-1.28,-0.23,-9.98,0.70,-0.00,-0.01,-0.16
67124,-1.22,1.61,-9.95,0.47,-0.39,-0.54,-0.19
67170,-1.24,3.26,-9.87,-3.84,0.04,-0.04,0.19
67215,-1.15,0.23,-9.78,0.80,0.09,0.35,0.09
67261,-1.14,2.04,-9.72,0.68,-0.85,0.11,-0.53
67306,-1.14,1.58,-9.70,-2.42,-0.28,-0.18,-0.02
67354,-1.30,1.77,-9.79,-0.11,-0.21,0.25,-0.00
67400,-1.17,3.01,-9.84,-0.96,-0.11,-0.01,0.09
67454,-1.30,1.73,-9.81,-1.73,0.18,0.20,0.42
67505,-1.24,1.20,-9.93,-0.65,-0.11,0.36,0.22
67550,-1.25,-0.30,-9.94,-0.19,-0.41,0.29,-0.07
67596,-1.14,1.45,-9.92,-3.22,-0.36,-0.10,-0.11
67641,-1.23,1.66,-9.75,-2.10,0.72,0.07,0.12
67687,-1.29,1.47,-9.96,0.20,0.14,0.13,0.02
67732,-1.27,0.85,-10.01,0.14,-0.18,0.29,-0.02
67778,-1.27,2.13,-9.76,-1.13,-0.20,0.12,-0.06
67824,-1.31,1.36,-10.05,-2.28,0.13,-0.04,-0.02
67872,-1.28,1.23,-9.79,-0.45,0.46,-0.08,0.13
67918,-1.40,2.65,-10.10,-1.30,-0.12,0.12,0.05
67972,-1.36,0.65,-9.93,0.56,0.36,0.26,0.10
68022,-1.33,0.65,-9.78,1.21,-0.11,0.49,-0.02
68068,-1.33,2.26,-9.88,-0.83,-0.15,0.02,0.05
68113,-1.32,2.15,-10.13,-1.06,0.25,0.08,0.14
68159,-1.23,1.54,-9.41,-1.53,0.76,0.38,0.20
68204,-1.27,0.42,-9.98,0.49,-0.19,0.20,0.07
68250,-1.31,0.85,-9.82,-0.10,-0.47,-0.10,0.06
68296,-1.25,2.28,-10.14,-2.27,-0.08,0.19,0.16
68341,-1.30,-0.96,-9.82,3.27,-0.14,1.20,0.06
68390,-1.27,-0.17,-10.42,-4.87,-0.65,-0.09,-0.14
68436,-1.26,0.99,-9.94,-0.80,0.20,-0.23,0.03
68490,-1.27,1.28,-9.99,-2.23,0.02,-0.18,-0.15
68540,-1.28,1.31,-9.87,1.52,-0.09,-0.02,-0.04
68586,-1.31,1.32,-9.76,0.66,-0.16,-0.31,-0.10
68631,-1.30,1.37,-10.13,-2.36,-0.50,-0.02,-0.09
68677,-1.29,0.88,-9.98,-1.33,0.02,-0.03,-0.04
68722,-1.22,1.70,-9.96,-1.00,0.13,-0.22,-0.08
68768,-1.27,1.30,-9.98,0.43,0.05,0.11,-0.06
68815,-1.21,2.35,-9.65,1.50,-0.04,-0.04,-0.05
68860,-1.29,1.95,-9.68,-2.64,-0.48,-0.14,-0.12
68908,-1.24,2.33,-10.15,-1.61,0.06,0.03,0.19
68954,-1.24,0.73,-9.75,-1.38,0.14,0.03,0.13
69008,-1.28,1.18,-9.95,-0.93,-0.14,0.16,-0.12
69058,-1.25,2.24,-10.13,-2.13,0.47,0.37,0.03
69104,-1.21,1.90,-9.38,1.13,-0.03,0.19,0.03
69149,-1.16,2.16,-9.81,-0.53,-0.15,0.00,0.13
69195,-1.11,1.70,-10.42,-2.02,-0.47,-0.11,0.11
69241,-1.18,0.88,-10.01,-1.31,0.23,0.04,0.15
69287,-1.14,0.23,-9.85,-0.31,-0.05,-0.02,-0.03
69332,-1.12,1.78,-10.01,-1.58,0.01,-0.04,-0.12
69378,-1.20,2.54,-9.84,0.66,-0.13,0.10,-0.00
69426,-1.20,0.39,-9.90,-1.41,-0.30,-0.04,-0.19
69472,-1.14,0.30,-9.83,-0.82,0.15,0.05,-0.05
69525,-1.13,2.18,-9.84,-0.92,0.05,0.14,-0.24
69576,-1.17,3.46,-9.75,-0.69,0.03,-0.02,-0.03
69621,-1.23,1.97,-9.83,0.02,-0.01,0.02,0.04
69668,-1.14,1.84,-9.80,0.11,-0.09,-0.04,0.10
69713,-1.09,-0.40,-10.15,0.46,-0.21,-0.04,0.01
69759,-1.10,-1.04,-10.08,-1.62,-0.18,-0.15,-0.48
69805,-1.19,0.92,-9.91,-2.20,-0.08,0.04,-0.34
69850,-1.14,5.19,-9.55,-0.62,0.02,0.36,-0.04
69896,-1.13,-0.12,-10.03,-2.52,-0.02,-0.38,-0.00
69944,-1.09,0.16,-10.06,-2.56,0.12,0.11,0.02
69990,-1.04,1.50,-9.99,0.26,0.18,0.02,-0.08
70043,-1.06,3.09,-9.68,-0.49,0.29,0.51,-0.04
70095,-1.02,0.87,-11.55,2.12,-0.39,0.19,-0.21
70140,-1.11,3.19,-8.63,-1.27,-0.36,0.17,0.17
70186,-1.09,2.99,-10.29,-2.85,-0.09,0.07,-0.13
70231,-1.15,1.17,-11.26,-2.12,0.67,1.00,-0.15
70277,-1.14,1.58,-9.70,-0.94,0.67,0.70,0.06
70322,-1.06,3.53,-9.60,0.51,0.16,0.54,0.41
70368,-1.18,3.54,-9.14,1.48,-0.14,-0.08,0.18
70413,-1.23,0.96,-9.77,0.63,-0.61,-0.40,0.22
70462,-1.23,1.01,-9.87,-0.43,-0.85,-0.28,0.01
70507,-1.16,2.68,-10.13,-2.32,-0.16,0.14,0.19
70561,-1.11,-0.04,-12.13,0.34,-0.82,0.64,1.00
70612,-1.19,2.35,-9.68,-0.91,-0.32,1.34,0.15
70658,-1.19,1.93,-9.89,-0.88,-0.18,1.08,0.21
70704,-1.17,1.89,-9.85,-1.11,-0.23,0.28,0.23
70749,-1.22,1.11,-9.83,-0.79,-0.29,0.13,0.24
70795,-1.25,0.78,-9.80,-1.63,-0.33,0.21,0.19
70840,-1.23,1.50,-9.87,-2.93,-0.29,0.06,0.12
70886,-1.28,1.48,-9.83,-2.61,-0.14,-0.00,0.23
70931,-1.22,0.13,-9.82,-2.17,-0.19,0.13,0.16
70980,-1.11,0.48,-9.82,-2.24,-0.03,0.06,0.12
71025,-1.15,0.48,-9.89,-1.55,0.01,0.00,0.04
71080,-1.19,0.60,-10.11,-1.07,0.22,-0.04,0.11
71130,-1.19,0.99,-9.84,-1.68,0.02,-0.02,0.03
71176,-1.14,0.87,-9.84,-1.59,-0.01,0.03,0.01
71221,-1.15,0.45,-9.95,-0.24,0.04,-0.10,0.02
71267,-1.08,1.32,-9.92,-1.56,-0.08,-0.27,0.08
71312,-1.03,1.07,-9.86,-2.49,-0.09,-0.20,0.07
71358,-1.07,0.06,-9.85,-2.23,-0.04,-0.11,0.04
71403,-1.20,0.34,-9.84,-1.05,0.08,-0.02,0.01
71449,-1.21,4.57,-9.89,-2.04,-1.74,-0.34,-1.02
71505,-1.22,2.04,-12.02,-2.26,0.76,-0.01,0.39
71551,-1.15,2.85,-13.41,-6.99,1.18,-2.41,-0.15
71605,-1.06,-2.66,-11.86,2.16,2.06,0.82,-0.04
71655,-1.12,-1.36,-8.72,2.56,-0.30,0.54,-2.04
71701,-1.14,1.87,-5.22,0.76,0.46,0.88,0.01
71746,-1.19,3.68,-15.81,-3.12,-0.86,-1.38,0.62
71792,-1.13,1.56,-10.29,-2.05,0.53,0.02,0.58
71837,-1.11,0.75,-9.86,0.29,0.60,-0.04,0.53
71883,-1.14,-0.01,-10.68,-0.22,0.25,0.23,0.72
71929,-1.04,0.05,-10.22,2.05,-2.29,0.29,1.87
71975,-1.04,1.46,-11.98,-1.78,0.60,-0.79,-0.39
72023,-1.05,-1.35,-8.37,-0.29,0.88,1.07,-0.63
72069,-1.10,1.69,-10.61,-0.08,0.64,-0.33,0.39
72122,-1.06,0.77,-7.96,0.23,1.37,1.39,0.25
72173,-1.00,0.91,-10.88,1.63,0.39,0.58,0.19
72218,-1.05,-0.48,-7.60,1.45,0.36,3.92,0.32
72264,-1.08,-2.29,-9.66,2.80,-0.19,0.73,0.13
72309,-0.95,-0.36,-9.26,1.09,-0.75,1.31,-0.28
72356,-0.99,0.11,-10.02,-0.09,-0.62,0.86,-0.27
72401,-0.97,0.85,-11.49,-1.44,-0.76,0.19,-0.04
72447,-1.00,-0.63,-10.88,0.92,0.07,0.32,0.35
72492,-1.08,0.20,-10.12,-0.34,0.09,-0.20,-0.11
72541,-1.13,-0.52,-9.83,0.78,0.16,0.63,0.05
72586,-1.09,-0.96,-9.79,0.79,-0.36,-0.22,-0.08
72640,-1.13,1.03,-10.04,-0.45,0.15,-0.47,-0.07
72690,-1.08,-0.08,-9.28,0.99,0.54,-0.03,0.40
72736,-1.08,-1.00,-8.09,1.22,-0.26,-0.91,-0.43
72783,-1.09,1.23,-9.47,-0.63,0.26,-0.77,-0.44
72828,-1.04,-0.02,-9.88,1.17,-0.02,-0.23,0.05
72874,-1.06,1.63,-10.01,-0.25,-0.32,-0.90,0.25
72919,-1.09,1.13,-9.73,-0.16,-0.25,-0.12,0.70
72965,-1.13,-1.24,-11.77,1.75,-0.10,-0.04,0.43
73010,-1.04,0.50,-10.02,-0.23,0.23,-0.42,-0.18
73059,-1.14,-1.45,-9.53,1.86,0.50,0.14,-0.05
73105,-1.13,-1.01,-10.07,1.05,-0.47,-0.40,-0.40
73159,-1.17,0.64,-8.65,0.57,-0.74,-0.96,-0.47
73210,-1.15,1.25,-10.65,-0.58,-0.15,0.04,0.18
73256,-1.14,0.13,-10.05,1.94,0.24,-0.51,0.16
73301,-1.09,1.66,-10.22,-0.60,0.48,-0.77,-0.56
73347,-1.06,-0.47,-10.18,0.59,0.38,-0.79,-0.42
73393,-1.11,1.55,-10.56,0.50,-0.17,0.61,0.13
73438,-1.18,0.49,-9.44,1.44,-0.84,0.75,0.69
73484,-1.19,0.17,-9.88,0.59,-1.22,0.67,0.56
73532,-1.22,0.21,-7.84,-1.24,-0.50,3.35,0.64
73577,-1.23,-0.79,-10.81,0.96,-1.18,2.24,0.44
73623,-1.21,0.91,-9.50,-1.71,-0.43,1.20,0.16
73678,-1.15,-2.31,-10.47,-1.36,-0.61,0.26,-0.35
73728,-1.13,1.29,-8.92,-1.74,-0.89,0.75,0.50
73774,-1.08,-0.90,-9.74,-2.82,-0.60,1.00,0.55
73819,-1.11,-2.36,-9.73,-2.73,-0.11,0.52,0.15
73865,-1.09,-0.03,-9.71,-3.63,0.05,0.97,0.01
73910,-1.21,0.00,-9.63,-2.06,0.03,0.96,0.08
73956,-1.23,0.44,-9.57,-0.94,-0.89,1.16,0.86
74001,-1.14,-1.25,-9.26,-3.10,-0.63,0.80,0.37
74050,-1.09,-1.47,-9.11,-3.48,-0.22,0.16,-0.09
74095,-1.10,-0.30,-9.45,-4.04,-0.04,0.09,0.03
74141,-1.05,-1.27,-9.28,-4.01,0.02,0.04,0.04
74195,-1.04,-0.97,-9.73,-2.11,-0.23,0.06,-0.02
74246,-1.01,-1.34,-9.03,-6.67,-0.54,0.20,-0.36
74291,-1.05,-0.08,-9.39,-3.16,0.31,0.15,-0.18
74337,-1.08,0.05,-9.55,-3.84,-0.03,0.13,-0.10
74383,-1.12,-0.26,-9.59,-2.49,0.09,0.17,0.05
74428,-1.10,-0.16,-9.39,-2.97,-0.13,-0.01,0.02
74474,-1.04,-0.34,-9.49,-3.69,-0.02,0.06,0.04
74519,-1.15,-0.08,-9.89,-3.94,0.54,0.04,-0.14
74567,-1.15,0.08,-9.11,-2.83,0.00,0.13,0.02
74613,-1.22,-0.35,-9.77,-3.39,0.25,0.70,0.15
74660,-1.25,-0.23,-9.38,-1.44,0.61,0.00,-0.01
74713,-1.26,0.26,-9.34,-2.87,-0.45,1.00,0.70
74764,-1.14,-1.86,-9.57,-3.59,-0.38,0.10,-0.03
74809,-1.15,-1.06,-9.73,-4.11,-0.26,0.13,-0.05
74855,-1.12,0.29,-9.35,-3.65,0.03,0.36,0.02
74900,-1.12,-1.03,-9.80,-2.53,0.11,0.59,0.12
74946,-1.12,-0.39,-9.62,-2.66,0.04,0.27,0.00
74991,-1.11,-0.41,-9.84,-2.41,-0.10,0.51,0.04
75037,-1.19,0.23,-9.28,-2.62,-0.43,-0.11,-0.08
75086,-1.16,-0.14,-9.57,-6.22,-0.32,0.11,-0.18
75132,-1.21,0.56,-11.05,-3.70,0.38,-0.42,-0.05
75178,-1.22,-0.49,-9.49,-1.21,0.87,-0.42,0.21
75231,-1.23,-1.37,-10.80,-1.26,-0.13,-0.30,-0.07
75282,-1.19,-0.62,-10.02,-2.66,-1.02,-0.22,-0.55
75328,-1.14,-0.29,-8.82,-4.61,-0.73,-0.04,-0.85
75373,-1.19,1.10,-11.11,-4.83,-0.82,0.27,-1.35
75419,-1.16,2.28,-10.48,-4.16,-0.34,0.29,-0.83
75464,-1.11,0.66,-8.00,-6.99,0.58,-0.04,0.56
75510,-1.16,0.72,-6.82,-2.47,1.89,-0.31,-0.69
75557,-1.08,3.85,-9.53,-0.13,-0.17,0.77,-0.21
75605,-1.07,2.63,-8.32,-0.34,-1.80,0.33,1.47
75650,-1.05,-0.95,-10.13,-7.20,-2.01,-0.02,1.06
75696,-0.93,-1.67,-9.79,-7.86,0.74,-0.45,0.15
75750,-1.00,0.46,-9.53,-2.18,1.11,-0.01,-0.61
75800,-1.01,0.29,-11.02,0.46,-0.02,-0.06,-0.49
75846,-0.99,-0.34,-11.09,0.24,-0.63,-0.35,-0.75
75891,-1.04,1.34,-3.42,-5.65,-2.60,-0.25,-1.31
75937,-0.97,3.06,-9.69,-7.49,-1.42,0.66,-0.66
75983,-0.89,0.16,-9.39,-5.56,0.77,-1.36,-0.55
76029,-0.88,1.00,-9.73,-5.09,0.43,-1.10,-1.74
76075,-0.92,3.94,-9.00,-5.55,-0.93,0.07,-1.64
76123,-0.89,5.02,-7.69,-6.37,0.62,-0.59,-0.29
76168,-1.00,1.66,-7.39,-4.79,1.15,-0.78,-0.71
76214,-0.94,4.10,-8.57,-4.62,0.83,-0.63,-0.40
76268,-0.93,2.72,-8.06,-3.41,0.08,-0.47,0.01
76318,-0.86,2.01,-7.83,-4.95,-0.12,-0.09,-0.86
76364,-0.96,3.72,-9.41,-4.38,0.31,-0.55,-1.64
76410,-0.93,7.11,-7.51,-6.10,-0.17,0.12,-0.38
76456,-0.96,5.59,-7.86,-5.12,-0.05,0.94,1.19
76501,-0.99,1.85,-8.15,-3.75,0.33,0.49,0.44
76547,-0.97,3.33,-8.78,-2.99,0.46,0.57,0.16
76592,-1.00,3.64,-7.95,-2.90,0.69,-0.25,-0.62
76641,-0.96,5.87,-8.78,-2.50,-0.33,0.03,0.50
76686,-1.01,1.40,-9.68,-2.26,-0.45,-0.03,1.03
76732,-1.02,4.48,-5.62,-3.96,-1.32,-0.37,-0.69
76786,-1.05,4.19,-10.61,-7.42,0.09,0.14,0.35
76837,-1.17,2.83,-9.12,-4.26,0.10,-0.29,-0.05
76883,-1.09,4.73,-8.35,-6.05,-0.65,0.43,0.06
76928,-1.12,3.49,-7.67,-4.54,0.63,-0.12,0.17
76974,-1.08,4.70,-7.96,-4.33,0.70,0.15,-0.10
77019,-1.10,3.07,-9.86,-2.59,0.07,0.44,0.84
77065,-1.09,2.75,-9.12,-3.31,0.37,-0.00,0.38
77110,-1.10,3.75,-8.30,-2.80,-0.27,0.44,0.01
77158,-1.14,4.60,-8.58,-1.49,-0.63,0.23,0.24
77204,-1.06,4.55,-7.05,-5.20,-1.08,0.69,0.66
77249,-0.95,0.90,-8.73,-6.06,-0.48,0.78,1.58
77303,-0.99,0.41,-13.12,-5.22,0.49,-0.36,0.59
77355,-1.03,2.02,-7.85,-1.97,0.16,-1.03,-1.10
77400,-0.93,4.64,-8.60,-5.05,-0.95,-0.23,-0.05
77446,-0.90,3.63,-7.88,-6.47,-0.09,-0.54,0.68
77491,-1.01,0.50,-9.96,-5.83,0.65,-0.17,0.42
77537,-0.97,1.47,-8.34,-3.03,0.46,0.08,-0.05
77582,-0.96,2.83,-9.77,-3.25,0.53,-0.01,-0.12
77628,-0.92,2.47,-9.28,-0.85,0.03,-0.47,-0.04
77676,-0.95,0.79,-9.06,-4.99,-0.77,-0.18,-0.28
77722,-0.94,2.95,-8.52,-6.17,-0.33,-0.20,-0.38
77767,-0.93,2.78,-9.19,-6.63,0.61,0.43,0.36
77822,-0.89,1.33,-9.30,-1.88,0.24,0.08,-0.18
77873,-0.95,3.46,-9.52,-3.49,-0.11,0.07,-0.14
77918,-0.95,2.22,-8.93,-3.16,-0.08,-0.10,0.00
77964,-1.06,2.93,-9.49,-3.23,-0.14,-0.13,0.02
78009,-1.12,1.43,-8.65,-4.75,-0.28,-0.24,-0.04
78055,-1.11,3.54,-8.38,-4.48,0.06,-0.10,-0.20
78100,-1.06,3.13,-7.59,-4.71,-0.45,0.79,0.08
78146,-1.06,2.42,-10.95,-2.26,0.06,0.64,0.13
78194,-1.13,0.72,-7.82,-2.74,0.39,-0.34,-0.01
78240,-1.06,2.41,-7.34,-5.52,-1.45,1.00,-0.13
78286,-1.05,3.45,-8.88,-5.61,-0.88,0.62,-0.20
78340,-1.09,2.92,-9.34,-6.55,-1.56,0.52,0.42
78391,-1.07,4.09,-6.95,-6.68,-0.14,1.39,0.13
78436,-1.04,2.82,-7.74,-3.08,3.43,-2.03,-0.74
78482,-0.99,3.74,-6.35,-7.66,2.40,-1.25,-0.82
78527,-1.07,0.74,-9.90,-3.67,3.87,-0.78,0.07
78573,-1.07,1.59,-8.16,-0.45,5.74,-2.11,-2.36
78618,-1.03,4.09,-6.62,-0.03,5.78,-1.78,-3.23
78664,-1.03,9.15,-3.27,17.37,3.11,-0.22,0.96
78713,-0.91,2.72,-9.48,1.35,-3.46,0.46,0.15
78759,-0.94,7.33,-11.38,-0.63,-3.15,1.16,-0.75
78804,-0.93,4.29,-10.54,-1.30,2.45,1.36,1.59
78858,-0.89,3.61,-4.76,5.47,3.00,0.39,3.09
78908,-0.86,1.32,-5.86,3.83,1.45,0.29,0.73
78954,-0.87,2.08,-5.76,7.29,1.97,0.13,-0.58
78999,-1.00,3.28,-7.42,7.49,0.32,0.27,0.56
79045,-0.91,2.70,-9.85,5.85,1.01,-0.76,1.64
79090,-0.92,1.40,-8.83,10.10,1.64,-0.45,3.70
79136,-0.82,-3.53,-8.66,8.55,-1.54,1.40,2.10
79182,-0.84,-3.39,-4.12,5.57,0.45,0.25,-1.56
79231,-0.95,2.36,-1.06,8.45,-0.54,-0.37,-0.90
79276,-0.97,1.30,-4.10,4.32,-0.31,-2.16,1.03
79322,-0.95,1.99,-7.54,3.33,0.49,0.03,-0.06
79375,-0.95,1.26,-9.48,2.91,0.04,1.01,-0.91
79426,-0.88,1.36,-7.15,4.52,2.68,-0.67,-0.94
79471,-0.90,1.18,-0.53,8.28,5.51,-1.89,0.39
79517,-0.87,5.17,2.80,9.28,6.21,-2.80,-0.29
79562,-0.92,3.22,-0.68,11.07,1.68,0.11,-1.22
79609,-0.93,4.14,6.26,16.70,0.01,-1.49,-2.78
79654,-0.90,8.00,-3.00,10.25,-1.78,-1.54,-1.83
79700,-0.92,8.04,-4.52,8.31,-1.90,-0.50,-0.89
79748,-0.96,7.11,2.35,5.80,-1.16,0.25,-0.54
79794,-1.00,5.55,-1.51,6.12,-0.78,0.82,0.21
79839,-0.94,8.04,1.69,7.21,0.94,0.54,0.71
79893,-1.00,-0.43,-4.94,12.59,-0.01,1.06,3.56
79943,-1.08,0.49,-2.91,10.21,-0.64,1.08,2.30
79989,-1.04,0.32,-3.69,8.96,-0.73,1.09,-0.01
80035,-1.10,4.24,-3.38,8.13,-0.50,-0.07,-0.72
80081,-1.13,4.39,-2.80,4.07,-0.78,1.24,-0.82
80126,-1.20,0.72,0.29,11.41,2.47,0.58,1.67
80172,-1.15,-0.29,-0.13,11.48,-0.26,0.75,1.00
80217,-1.16,0.99,-3.49,9.62,-0.77,0.20,-0.30
80265,-1.18,1.13,-0.87,10.95,0.15,-0.11,0.23
80311,-1.25,2.04,-1.81,8.76,-1.07,0.25,0.11
80356,-1.22,2.24,-3.16,8.01,-0.73,0.08,0.61
80410,-1.22,-0.00,-6.62,6.40,-0.15,0.59,0.33
80462,-1.25,-0.15,-0.01,11.72,1.18,0.47,0.59
80507,-1.19,0.00,-5.84,6.72,-0.20,0.14,-0.68
80553,-1.17,2.37,0.67,11.20,0.94,-0.34,-0.69
80598,-1.10,1.28,-1.79,9.25,-0.40,0.28,0.18
80644,-1.16,-1.80,-0.50,11.21,-0.20,-0.75,0.49
80689,-1.06,1.90,-3.59,9.58,0.03,-0.87,1.02
80735,-1.08,1.47,-4.13,8.27,0.79,-1.16,0.96
80780,-1.12,2.04,-0.45,7.38,0.12,0.23,0.21
80828,-1.17,-0.57,-2.37,7.89,-0.30,-0.51,-1.58
80874,-1.04,1.87,-5.20,3.69,0.78,-1.15,-2.60
80928,-1.07,1.39,0.97,12.40,2.80,-0.85,-2.04
80979,-1.08,0.66,9.37,12.64,-1.59,-1.00,-2.68
81025,-1.05,5.38,6.93,9.23,-2.13,-1.26,-1.66
81070,-1.06,5.02,-1.70,9.42,-0.54,-1.53,1.67
81116,-1.03,6.85,-8.06,5.58,-2.44,-1.02,1.25
81162,-0.96,7.73,-3.95,3.11,-1.99,-0.07,0.08
81207,-0.97,2.24,-1.74,10.39,1.35,0.22,2.01
81253,-0.99,5.66,0.56,8.02,-0.59,0.86,1.71
81298,-0.91,-0.42,-13.96,8.29,-1.22,1.44,1.99
81346,-0.90,2.73,-3.93,4.57,1.30,-0.00,-0.24
81392,-0.90,4.21,1.89,13.89,2.04,0.96,-0.00
81447,-0.97,0.11,-1.01,8.39,-0.67,1.06,0.36
81497,-1.01,2.41,-1.13,9.25,0.55,0.28,-0.46
81542,-1.15,0.49,-4.05,12.18,-1.07,0.63,0.75
81588,-1.13,0.25,-2.33,12.32,-0.37,-0.15,-0.33
81634,-1.18,1.94,-6.68,5.34,-1.29,-0.83,-0.19
81679,-1.13,2.64,-3.69,9.58,1.23,0.14,0.37
81725,-1.13,-0.05,-2.59,9.45,-0.34,0.11,0.34
81770,-1.11,2.03,-6.80,6.00,0.10,0.10,-0.06
81816,-1.10,2.57,0.00,9.83,1.99,0.31,0.33
81864,-1.13,0.50,0.98,10.92,0.23,0.39,-0.46
81909,-1.08,1.33,-5.98,8.07,-0.52,-0.02,-0.02
81964,-1.01,1.78,-0.86,11.31,-0.20,-0.08,0.03
82014,-1.05,1.17,-2.21,8.73,0.36,0.24,0.13
82060,-1.01,1.30,-4.11,9.59,-0.38,0.49,0.33
82105,-0.98,1.55,-0.19,9.59,-0.18,-0.01,0.05
82151,-0.99,4.12,-3.92,6.33,-0.37,1.00,0.26
82196,-1.01,0.07,-2.88,8.40,0.71,0.48,1.13
82242,-1.02,-3.05,-2.20,9.81,0.59,0.69,0.93
82287,-1.04,0.38,-3.04,11.03,-0.50,0.16,-0.15
82333,-1.06,-1.07,-2.25,7.14,-0.03,-0.65,0.64
82382,-1.08,-5.75,-2.41,12.03,-1.19,-1.29,0.31
82428,-1.04,5.05,-1.71,3.10,-2.43,-2.13,-1.68
82482,-1.00,9.67,-1.62,4.31,1.52,-0.10,-1.46
82532,-0.93,8.90,-6.40,6.60,0.45,2.57,0.94
82577,-1.07,-9.91,-6.63,21.82,3.60,0.64,3.38
82623,-1.07,2.44,3.14,13.93,-2.88,-0.30,-1.97
82669,-1.12,3.78,2.98,2.82,-4.10,0.24,-2.02
82714,-1.14,-1.55,-2.65,-3.29,4.76,-2.27,3.13
82760,-1.09,0.21,-2.45,11.47,5.53,-0.20,2.45
82805,-1.01,0.72,-2.11,8.83,0.65,-0.06,-0.99
82852,-1.02,2.49,1.79,8.14,0.52,0.31,-2.06
82900,-0.99,4.70,0.39,6.30,1.53,0.19,-0.09
82945,-1.05,-1.44,8.50,12.59,4.15,0.35,1.37
82999,-1.03,3.98,7.87,12.14,-0.20,0.94,-0.44
83050,-0.98,-2.15,0.55,10.46,-1.57,-0.16,0.99
83095,-0.91,0.94,0.52,6.84,-0.24,-0.56,-1.18
83141,-0.97,3.03,0.79,6.12,2.24,-1.03,0.06
83186,-0.92,1.87,5.73,8.73,2.77,-0.40,0.54
83232,-0.86,4.73,9.83,7.20,-0.26,0.31,-0.82
83278,-0.97,1.96,4.55,6.64,0.06,0.24,-0.15
83324,-0.87,0.81,3.94,7.72,0.92,0.51,0.82
83369,-0.91,-1.14,2.49,10.37,0.79,0.38,0.03
83415,-0.94,-0.59,4.38,9.97,-0.27,-0.44,-0.18
83463,-0.95,0.65,8.99,7.65,-1.68,-0.19,-1.77
83516,-0.93,2.60,6.93,5.29,-1.30,-0.18,-1.59
83567,-0.99,3.43,5.39,7.75,-0.23,-0.18,-1.41
83612,-0.97,0.14,2.89,7.99,-0.16,0.50,-0.52
83658,-1.03,1.78,5.71,9.67,0.39,0.14,0.72
83703,-1.08,0.18,4.22,9.57,-0.23,0.61,1.65
83750,-1.16,-0.67,3.97,9.35,-0.65,-0.10,1.30
83795,-1.16,-0.11,5.61,11.99,-0.01,0.23,0.03
83841,-1.13,0.10,4.89,11.23,-0.67,-0.71,0.10
83886,-1.11,0.80,6.43,10.08,-1.71,-0.76,0.29
83932,-1.14,2.99,6.31,5.84,-1.92,-0.88,0.26
83980,-1.06,3.32,2.63,5.12,-0.94,-0.55,0.40
84034,-1.04,2.11,-0.57,9.48,0.19,0.24,1.17
84085,-1.08,1.51,-0.25,9.73,-0.81,-0.04,1.10
84131,-0.93,2.27,0.49,9.84,-1.48,-0.17,-0.62
84177,-0.98,1.92,-1.70,7.69,-1.99,-0.55,-0.83
84222,-0.89,2.98,-1.31,6.53,-0.96,-0.26,-0.50
84268,-0.86,2.98,1.43,8.18,0.46,0.45,0.57
84313,-0.89,1.81,-0.23,9.49,-0.03,0.24,0.72
84359,-0.97,1.54,-0.32,9.88,-0.46,0.45,-0.02
84404,-1.03,2.45,-0.29,8.68,-1.01,-0.08,-0.56
84450,-0.92,2.77,-1.81,9.75,-0.50,0.22,-0.03
84498,-0.95,1.68,-2.99,9.87,0.10,0.09,0.45
84552,-0.95,0.53,-0.59,11.56,-0.05,-0.31,-1.07
84603,-1.03,2.61,1.49,11.23,-1.03,-0.55,-0.93
84649,-1.14,3.29,0.03,9.45,-1.40,-0.76,-0.42
84694,-1.08,3.11,-1.83,8.62,-1.37,-0.76,-0.39
84740,-1.11,4.41,-0.16,8.02,-1.56,-0.51,-0.76
84785,-1.08,3.93,-1.54,7.15,-2.29,-0.39,-0.49
84831,-1.06,4.70,-3.75,5.10,-1.48,-0.38,-0.37
84877,-0.97,4.44,-4.87,6.80,-0.55,0.13,0.12
84922,-0.95,3.85,-5.88,7.41,-0.36,0.38,0.13
84968,-0.87,3.57,-3.51,8.29,0.87,0.29,-0.31
85016,-0.79,4.13,-2.80,10.38,0.33,0.14,0.09
85070,-0.86,4.02,-2.70,9.11,-0.62,-0.42,-0.67
85121,-0.88,5.04,-3.67,7.75,-0.34,-0.51,0.05
85166,-0.83,4.62,-5.11,6.80,-0.36,-0.30,0.39
85212,-0.84,4.73,-4.45,7.55,-0.34,-0.20,-0.00
85257,-0.83,4.57,-4.86,6.44,-0.40,-0.20,-0.00
85303,-0.78,4.09,-4.33,7.07,-0.49,0.02,0.13
85348,-0.69,3.84,-4.45,7.36,-0.79,0.07,-0.26
85394,-0.68,3.59,-5.37,7.09,-1.57,0.08,-0.54
85440,-0.64,3.14,-7.08,7.88,-1.34,-0.64,-0.93
85485,-0.60,5.12,-6.71,6.23,-0.27,-0.29,-0.22
85533,-0.62,4.47,-5.83,7.82,-0.29,-0.44,-0.55
85588,-0.76,5.41,-3.69,6.70,-0.51,-0.81,-0.18
85638,-0.81,7.39,-4.03,4.49,0.23,-0.88,0.27
85684,-0.86,7.50,-5.32,3.82,0.16,-0.49,0.44
85729,-0.84,7.42,-6.94,4.64,0.26,-0.08,0.25
85775,-0.75,6.68,-5.78,5.56,-0.09,-0.03,-0.16
85821,-0.80,7.28,-4.18,5.39,-0.01,-0.01,-0.08
85866,-0.82,6.29,-4.10,5.15,-0.16,0.02,0.26
85912,-0.91,6.16,-4.83,4.39,-0.16,-0.08,0.25
85957,-0.88,6.53,-7.08,5.66,0.00,0.17,-0.68
86003,-0.93,6.20,-4.78,5.32,-0.08,0.15,0.08
86048,-0.92,5.34,-6.86,6.73,0.12,0.56,0.37
86104,-0.97,5.33,-4.49,5.27,-0.27,-0.33,-0.20
86155,-0.93,6.56,-6.04,3.21,-0.31,-0.09,0.08
86200,-0.90,6.41,-4.85,2.58,-0.05,0.41,-0.42
86246,-0.95,5.12,-3.65,4.25,0.63,0.91,-0.47
86291,-0.96,4.92,-3.76,5.53,0.98,0.68,-0.40
86337,-0.92,4.95,-5.17,4.31,1.01,0.96,-0.90
86382,-0.97,6.42,-6.67,2.05,0.59,1.30,-1.49
86428,-1.02,4.52,-3.28,2.37,2.16,1.13,-2.17
86473,-1.02,4.58,-0.37,6.08,4.99,5.12,-1.61
86519,-0.94,0.39,1.74,8.70,4.80,6.79,1.11
86565,-0.92,-5.70,6.35,12.11,2.45,2.10,0.78
86621,-0.91,-2.72,4.73,5.39,0.04,-0.06,-2.64
86671,-0.92,-0.27,9.06,6.69,3.36,2.69,-1.27
86716,-0.91,-3.10,10.26,6.14,4.69,6.44,2.69
86762,-0.96,-5.57,10.59,5.68,2.35,4.27,2.27
86807,-1.02,-4.06,9.14,3.84,0.83,1.82,1.50
86853,-1.02,-4.27,8.94,5.14,0.76,1.18,1.24
86898,-1.10,-8.10,13.89,8.49,0.68,0.36,-0.04
86944,-1.16,-4.63,8.42,3.84,-1.64,0.03,-0.50
86990,-1.13,-3.95,8.15,5.54,-1.17,-0.56,-0.30
87036,-1.26,-3.04,7.28,4.58,-0.67,1.17,0.06
87082,-1.35,-4.86,6.44,3.93,-0.93,3.45,0.14
87137,-1.42,-4.69,6.75,3.39,-1.05,0.91,0.30
87187,-1.40,-4.23,6.65,4.37,-0.88,-1.16,0.17
87233,-1.31,-3.90,6.84,5.89,-0.63,-0.97,0.25
87278,-1.23,-3.10,5.93,6.04,-0.33,-0.04,0.36
87324,-1.29,-2.99,6.55,5.77,-0.05,0.51,0.22
87369,-1.29,-3.00,7.09,5.25,0.13,-0.12,-0.13
87415,-1.27,-3.33,6.79,5.25,0.21,-0.65,-0.40
87461,-1.20,-4.08,6.52,5.28,0.30,-0.63,-0.44
87507,-1.22,-3.51,6.41,4.48,0.21,0.11,-0.15
87553,-1.19,-3.97,7.32,4.15,-0.02,-1.09,-0.30
87598,-1.23,-3.72,6.63,4.82,-0.30,-0.77,-0.14
87653,-1.25,-4.16,6.36,5.65,-0.44,-0.12,0.28
87704,-1.24,-3.25,6.57,5.58,-0.44,-0.26,0.47
87749,-1.25,-2.75,6.49,6.05,-0.46,-0.02,0.49
87795,-1.30,-2.48,6.30,6.49,-0.32,-0.10,0.40
87840,-1.29,-2.05,6.38,6.42,-0.16,-0.04,0.26
87887,-1.24,-2.02,6.48,6.29,-0.06,-0.02,0.04
87932,-1.29,-2.01,6.27,6.13,0.02,-0.06,-0.15
87978,-1.32,-3.12,6.24,6.90,0.03,-0.15,-0.18
88024,-1.28,-2.88,6.29,5.95,-0.05,-0.10,-0.09
88069,-1.20,-2.41,6.48,6.04,-0.17,0.15,-0.03
88115,-1.30,-2.17,6.01,5.52,-0.27,0.07,-0.21
88170,-1.22,-3.73,5.36,7.17,-0.03,-0.74,-0.14
88220,-1.24,-3.18,6.22,7.25,0.21,0.04,0.33
88266,-1.32,-1.98,6.82,5.60,0.16,-0.02,0.36
88311,-1.31,-1.93,6.49,5.60,0.01,-0.02,0.31
88358,-1.22,-2.07,6.30,7.01,0.00,-0.20,0.21
88403,-1.24,-1.54,6.49,6.50,0.22,0.06,0.17
88449,-1.22,-1.29,6.96,5.44,0.10,-0.16,-0.10
88494,-1.19,-1.80,6.70,6.36,-0.06,-0.28,-0.33
88540,-1.23,-1.81,6.29,6.00,0.06,-0.63,-0.40
88585,-1.17,-1.99,6.57,5.76,-0.24,-0.01,-0.39
88631,-1.18,-2.98,6.42,7.64,-0.24,-0.13,-0.31
88683,-1.21,-1.97,6.56,5.81,0.15,-0.33,-0.06
88736,-1.22,-2.06,6.45,6.27,-0.24,0.06,-0.09
88783,-1.18,-2.37,5.98,6.97,0.05,0.05,0.07
88828,-1.22,-1.75,6.91,5.45,-0.22,0.24,0.03
88874,-1.19,-2.64,5.93,7.49,-0.07,-0.08,0.07
88919,-1.19,-2.03,6.42,6.06,-0.03,-0.00,0.15
88965,-1.24,-1.63,6.45,5.69,-0.23,0.05,0.09
89010,-1.18,-2.45,5.86,7.93,-0.15,0.25,0.11
89056,-1.21,-1.51,6.57,5.92,0.07,-0.09,0.07
89101,-1.20,-1.86,6.27,6.70,-0.10,0.06,-0.05
89147,-1.21,-2.13,6.20,6.82,0.04,-0.17,-0.05
89201,-1.21,-2.43,6.11,7.15,0.18,-0.06,0.08
89255,-1.27,-1.77,6.31,6.46,0.41,-0.05,0.21
89300,-1.24,-1.05,7.02,4.93,0.13,0.09,0.05
89346,-1.29,-1.35,6.91,5.48,-0.33,-0.01,-0.23
89391,-1.23,-1.77,6.26,6.30,-0.30,-0.00,-0.28
89437,-1.26,-3.12,6.09,8.27,-0.12,-0.05,-0.13
89482,-1.26,-1.85,6.80,5.97,0.13,-0.07,0.01
89528,-1.20,-2.18,6.61,6.45,-0.09,-0.06,-0.01
89573,-1.23,-2.12,6.00,6.77,0.07,0.02,0.12
89619,-1.11,-2.23,6.26,6.73,-0.07,-0.13,0.09
89664,-1.01,-1.58,6.54,5.63,0.02,0.11,0.20
89718,-1.00,-1.92,6.41,7.08,-0.15,-0.09,0.11
89772,-1.05,-1.31,6.73,5.81,0.02,0.10,0.10
89817,-1.05,-1.83,6.34,7.30,0.01,-0.03,0.00
89863,-1.08,-1.65,6.57,6.33,0.24,-0.04,0.03
89908,-1.13,-1.37,6.99,5.18,-0.04,0.04,-0.06
89954,-1.20,-1.91,6.47,6.54,-0.15,-0.03,-0.08
90000,-1.19,-1.92,6.55,6.65,-0.10,0.10,-0.01
90045,-1.25,-1.95,6.46,6.56,0.11,-0.01,0.05
90091,-1.28,-1.47,6.77,5.41,-0.04,0.01,0.01
90136,-1.38,-1.52,6.68,5.63,-0.57,0.18,-0.17
90182,-1.47,-2.23,6.04,7.91,-0.37,0.34,-0.12
90236,-1.44,-2.25,6.26,7.04,0.28,-0.18,0.04
90289,-1.43,-1.86,6.62,5.68,0.15,0.05,0.09
90335,-1.36,-1.93,6.61,5.85,-0.07,0.00,0.08
90380,-1.42,-2.00,6.49,5.85,-0.22,-0.10,0.06
90426,-1.39,-2.22,6.00,7.26,-0.03,0.20,0.22
90471,-1.29,-1.43,6.61,5.97,0.09,-0.02,0.19
90517,-1.24,-1.54,6.65,6.19,-0.11,0.10,0.07
90562,-1.25,-1.54,6.44,6.90,-0.02,0.03,-0.03
90608,-1.14,-2.07,6.62,7.37,0.22,-0.11,-0.07
90653,-1.07,-1.58,6.86,5.60,0.30,-0.33,-0.05
90699,-1.09,-1.81,7.06,5.44,-0.07,0.09,-0.02
90754,-1.08,-1.83,5.75,6.17,0.03,-0.49,0.12
90804,-1.04,-1.30,6.64,6.09,-0.05,0.22,0.17
90852,-1.05,-1.27,6.78,6.04,-0.10,-0.06,0.07
90897,-1.15,-1.49,6.70,6.45,-0.12,0.04,0.06
90943,-1.23,-1.33,6.71,6.10,-0.10,0.00,0.05
90988,-1.23,-1.41,6.61,6.39,-0.17,-0.03,0.01
91034,-1.20,-1.48,6.61,6.76,-0.10,0.00,0.03
91079,-1.26,-1.41,6.37,6.34,0.03,-0.08,0.04
91125,-1.25,-1.14,7.05,6.14,-0.11,-0.04,-0.02
91171,-1.35,-1.57,6.33,6.82,0.00,-0.07,-0.01
91217,-1.26,-1.34,6.77,5.98,-0.04,0.02,0.04
91271,-1.38,-1.36,6.62,6.47,-0.06,0.05,0.09
91321,-1.29,-1.07,6.60,6.09,-0.08,0.01,0.06
91369,-1.31,-0.80,6.69,5.51,-0.32,0.16,-0.08
91415,-1.24,-1.70,6.59,8.14,-0.30,0.01,-0.20
91460,-1.23,-1.78,6.12,7.35,0.07,-0.48,-0.14
91506,-1.21,-1.09,8.41,5.78,-0.13,0.13,-0.10
91551,-1.22,-1.21,6.32,6.08,-0.40,0.26,-0.17
91598,-1.27,-1.92,6.03,8.26,-0.13,-0.02,-0.18
91643,-1.26,-1.28,6.30,5.16,-0.17,0.06,-0.19
91689,-1.34,-2.26,5.77,6.79,-0.17,-0.04,0.08
91735,-1.32,-1.89,6.43,6.36,-0.31,0.09,0.30
91788,-1.35,-1.97,5.48,8.32,0.08,0.41,0.61
91839,-1.44,-1.00,7.58,6.92,0.09,0.06,0.48
91887,-1.34,-0.83,6.70,6.74,0.17,-0.17,0.26
91932,-1.30,-0.63,5.76,5.72,0.15,0.03,0.14
91978,-1.37,-0.30,6.56,5.58,-0.15,0.43,-0.10
92023,-1.39,-0.91,5.62,5.28,-0.48,-0.39,-0.49
92070,-1.42,-2.38,8.37,9.65,-0.59,-1.09,-0.58
92115,-1.37,-1.25,3.56,6.43,-0.17,-2.07,-0.20
92161,-1.23,-0.83,4.59,8.32,0.72,1.49,0.35
92206,-1.22,-1.45,7.21,5.65,0.24,0.27,0.27
92252,-1.29,-0.35,6.57,5.15,-0.19,-0.29,0.22
92306,-1.28,-0.63,5.36,7.15,-0.15,0.40,0.23
92356,-1.33,-0.41,6.03,7.29,0.02,-0.08,0.05
92404,-1.39,-0.40,6.20,6.35,0.06,-0.02,-0.10
92449,-1.33,-0.43,6.83,6.85,-0.10,-0.08,-0.23
92496,-1.41,-0.86,5.81,7.12,0.07,-0.27,-0.33
92541,-1.39,-1.16,6.49,6.14,-0.01,-0.30,-0.25
92587,-1.34,-1.10,6.57,6.22,-0.24,-0.01,-0.07
92633,-1.38,-1.38,6.78,6.84,-0.41,-0.01,0.09
92678,-1.48,-1.11,5.12,7.42,-0.13,0.24,0.37
92724,-1.46,-0.49,5.88,6.57,-0.07,0.22,0.38
92769,-1.47,-0.20,6.30,7.63,-0.05,0.12,0.20
92823,-1.35,-0.15,4.40,5.78,0.20,0.31,0.04
92873,-1.40,-0.21,6.02,6.55,0.08,-0.15,-0.21
92919,-1.36,-0.75,7.44,7.63,0.00,-0.02,-0.38
92968,-1.36,-1.37,6.43,7.14,0.34,-1.09,-0.28
93013,-1.31,-1.31,7.72,7.04,0.12,-1.65,-0.20
93059,-1.24,-0.76,7.80,6.30,0.27,-2.04,-0.01
93104,-1.27,0.78,5.13,5.14,-0.32,-1.97,0.07
93150,-1.32,1.82,6.48,6.88,-0.41,-0.02,0.30
93195,-1.19,2.03,6.20,7.91,-0.26,1.27,0.24
93241,-1.15,1.25,5.73,7.48,-0.02,1.13,-0.07
93286,-1.09,0.92,6.09,7.68,-0.16,-0.29,-0.29
93340,-1.13,0.49,6.45,7.55,0.04,-0.71,-0.40
93391,-1.13,0.15,6.26,6.74,0.08,-0.93,-0.27
93437,-1.18,0.12,6.07,6.17,-0.04,-0.71,0.09
93485,-1.16,1.16,6.19,6.37,-0.18,0.79,0.55
93530,-1.23,1.40,6.35,7.87,-0.07,1.51,0.56
93576,-1.26,1.05,5.93,7.68,0.09,0.47,0.24
93621,-1.27,1.35,6.31,6.77,0.14,-0.62,-0.14
93667,-1.15,1.26,6.42,6.61,0.07,-0.24,-0.28
93712,-1.11,1.03,7.16,6.53,-0.21,-0.18,-0.33
93758,-1.17,0.41,6.38,7.58,-0.11,-0.15,-0.29
93803,-1.13,0.38,5.82,6.58,-0.17,-0.48,-0.17
93857,-1.11,0.57,6.38,7.31,-0.14,0.32,0.11
93908,-1.15,0.23,5.25,7.11,0.12,-0.08,0.23
93954,-1.25,1.10,7.17,6.94,0.01,0.08,0.33
94002,-1.15,1.44,6.50,6.68,-0.15,0.41,0.32
94047,-1.20,1.60,5.79,7.52,-0.01,0.15,0.01
94093,-1.27,1.21,6.47,6.68,-0.00,-0.31,-0.25
94138,-1.26,0.88,6.34,6.87,-0.09,-0.22,-0.28
94184,-1.23,0.62,6.24,6.47,-0.21,0.02,-0.14
94229,-1.20,0.87,6.19,7.28,-0.27,0.23,-0.05
94275,-1.25,0.55,5.78,7.56,-0.07,0.10,-0.05
94320,-1.20,0.62,6.11,6.73,-0.04,0.01,-0.00
94375,-1.21,0.53,6.16,7.49,0.03,0.11,0.10
94425,-1.26,0.73,6.22,6.35,0.02,0.07,0.15
94471,-1.20,0.96,6.24,7.36,-0.10,0.20,0.13
94516,-1.19,0.70,6.04,7.83,0.11,-0.18,0.02
94564,-1.21,0.84,7.07,6.22,-0.02,-0.22,0.07
94610,-1.27,0.91,6.42,7.66,-0.08,0.26,0.14
94655,-1.33,0.82,6.00,7.42,0.09,-0.29,0.07
94701,-1.33,1.03,6.61,6.52,0.07,-0.05,0.13
94746,-1.30,1.07,6.37,6.84,-0.04,0.08,0.16
94791,-1.24,1.42,6.28,6.99,-0.05,0.09,0.10
94837,-1.21,1.41,6.26,6.53,-0.07,-0.02,-0.07
94892,-1.14,1.47,6.61,6.78,-0.22,0.06,-0.22
94942,-1.22,0.89,5.85,7.12,-0.06,-0.60,-0.42
94988,-1.19,0.57,6.27,7.02,-0.01,-0.88,-0.29
95033,-1.22,0.76,4.92,4.43,-0.55,-0.42,0.05
95082,-1.28,1.04,7.50,8.03,-0.63,0.95,0.43
95127,-1.32,0.71,4.50,8.38,-0.20,1.03,0.53
95173,-1.45,1.36,5.34,8.14,0.07,-0.31,0.31
95218,-1.35,2.10,5.84,6.94,0.18,-0.38,0.06
95264,-1.43,1.93,6.14,6.87,0.05,-0.03,-0.13
95310,-1.40,1.43,6.25,7.47,0.00,-0.25,-0.29
95356,-1.30,0.94,6.28,7.28,0.02,-0.84,-0.26
95409,-1.27,1.44,6.88,7.39,-0.15,0.13,0.08
95460,-1.25,1.33,5.73,7.27,-0.09,0.23,0.20
95505,-1.20,1.94,5.94,7.02,-0.12,0.03,0.13
95551,-1.20,2.13,5.60,7.26,-0.11,0.06,-0.06
95596,-1.29,1.70,5.87,7.41,-0.09,-0.12,-0.23
95644,-1.25,1.21,5.92,7.04,-0.10,-0.31,-0.19
95690,-1.17,1.19,6.01,7.39,-0.11,0.17,0.04
95735,-1.19,1.16,6.02,7.99,-0.02,-0.03,0.19
95782,-1.26,1.71,5.68,7.64,0.22,0.11,0.27
95827,-1.22,2.08,6.67,7.21,0.18,0.12,0.23
95873,-1.29,1.97,5.38,6.58,0.21,0.16,0.07
95926,-1.28,2.03,6.42,6.58,-0.09,-0.20,-0.09
95977,-1.29,1.60,6.02,7.32,-0.13,-0.06,-0.12
96022,-1.31,1.65,6.06,7.06,-0.09,-0.05,-0.09
96068,-1.23,1.52,6.14,7.17,-0.11,0.01,-0.03
96113,-1.16,1.90,6.31,7.63,-0.07,0.20,0.02
96161,-1.17,1.78,6.24,6.96,-0.12,0.17,-0.05
96208,-1.20,1.83,5.66,7.81,-0.02,0.16,-0.16
96253,-1.22,1.26,6.12,6.79,-0.05,-0.30,-0.22
96299,-1.16,1.08,6.03,7.35,-0.04,0.23,-0.04
96344,-1.19,1.04,6.00,7.24,0.03,0.01,0.08
96390,-1.28,1.46,6.29,7.02,-0.03,0.26,0.22
96443,-1.25,1.62,6.02,7.40,0.05,0.15,0.15
96493,-1.18,1.64,6.24,6.80,-0.02,0.01,0.02
96539,-1.25,1.52,6.50,7.21,-0.18,-0.00,-0.01
96584,-1.29,1.69,6.40,6.90,-0.16,0.12,-0.07
96630,-1.22,1.20,6.68,6.30,-0.48,-0.16,-0.10
96676,-1.18,1.23,4.64,8.35,-0.17,0.18,-0.07
96724,-1.16,1.14,5.81,6.83,-0.00,-0.08,-0.06
96770,-1.15,0.92,5.65,7.47,-0.05,0.41,0.10
96815,-1.16,0.95,5.99,7.76,0.09,-0.12,0.13
96861,-1.18,1.02,6.30,6.49,0.01,0.06,0.29
96906,-1.16,1.54,5.91,7.76,-0.08,0.33,0.36
96960,-1.16,1.70,5.95,7.08,0.04,0.05,0.17
97010,-1.23,1.62,6.02,7.08,-0.12,0.06,0.08
97055,-1.27,1.61,5.88,7.51,-0.04,0.03,-0.04
97102,-1.24,1.59,6.13,7.14,-0.13,0.02,-0.11
97147,-1.15,1.40,5.90,7.94,-0.06,-0.07,-0.19
97193,-1.15,1.14,6.26,7.07,-0.06,-0.13,-0.17
97241,-1.25,0.99,5.84,7.69,-0.09,0.06,-0.03
97287,-1.16,1.12,5.97,7.51,0.05,0.01,0.06
97332,-1.22,1.27,6.12,7.80,0.19,0.02,0.08
97377,-1.20,1.55,6.07,8.04,0.46,0.04,0.03
97423,-1.19,1.48,6.26,6.24,0.45,-0.20,-0.07
97476,-1.12,1.36,6.74,4.88,-0.21,-0.26,-0.07
97527,-1.04,1.50,5.49,7.70,-0.30,0.20,-0.05
97573,-1.01,1.29,6.16,7.06,-0.17,-0.04,-0.09
97619,-1.09,1.45,5.88,7.52,-0.14,0.20,-0.05
97664,-1.17,1.19,6.24,6.92,-0.11,-0.12,-0.09
97710,-1.15,1.06,6.09,7.35,-0.02,0.00,-0.05
97755,-1.20,1.22,6.43,6.59,-0.16,-0.08,0.01
97803,-1.28,1.09,5.72,7.71,-0.01,0.02,0.08
97849,-1.17,1.40,6.26,6.94,-0.09,-0.02,0.13
97894,-1.16,1.35,6.17,6.68,-0.09,-0.08,0.14
97940,-1.14,1.91,5.17,8.07,0.05,0.04,0.06
97993,-1.17,1.61,6.11,6.65,-0.08,-0.03,-0.04
98045,-1.18,1.35,5.79,7.80,0.04,0.02,-0.03
98090,-1.17,1.35,6.57,6.33,-0.08,-0.00,0.03
98136,-1.27,1.55,5.69,7.88,0.02,0.23,0.06
98181,-1.23,1.66,6.39,6.61,-0.00,-0.01,-0.04
98227,-1.23,1.56,5.97,7.36,0.01,0.06,-0.11
98272,-1.22,1.47,6.10,7.66,0.03,-0.10,-0.16
98320,-1.19,1.24,6.60,6.36,-0.08,-0.08,-0.11
98366,-1.18,1.26,5.95,7.15,-0.08,-0.01,-0.08
98411,-1.12,1.36,6.19,7.42,-0.11,0.06,-0.05
98457,-1.10,1.24,6.12,6.90,-0.02,-0.03,-0.06
98512,-1.08,1.13,6.17,7.23,-0.11,0.02,0.02
98562,-1.07,1.28,6.30,7.36,-0.11,0.05,0.09
98607,-1.03,1.50,5.91,7.58,0.12,0.06,0.04
98653,-0.97,1.37,6.37,6.02,0.06,-0.04,-0.04
98698,-1.02,1.36,6.34,7.93,-0.02,0.01,-0.05
98744,-1.03,1.13,6.34,6.20,0.03,-0.16,-0.03
98789,-0.98,1.15,6.29,6.98,-0.21,0.11,0.10
98835,-1.11,1.31,5.74,7.81,0.01,-0.01,0.14
98883,-1.13,1.60,6.18,6.43,0.01,0.04,0.11
98928,-1.10,1.77,5.96,7.24,-0.04,0.08,0.01
98974,-1.15,1.69,6.32,6.45,-0.06,0.01,-0.13
99028,-1.20,1.40,6.14,7.54,-0.19,-0.07,-0.23
99079,-1.22,0.72,6.34,8.13,0.06,-0.03,-0.10
99124,-1.24,0.38,6.40,6.24,0.15,-0.11,0.25
99170,-1.22,1.24,6.51,6.44,-0.16,0.36,0.57
99215,-1.27,2.38,5.91,8.02,-0.10,0.24,0.41
99261,-1.25,3.00,6.31,7.32,0.12,-0.08,-0.04
99306,-1.31,2.28,6.47,6.20,-0.05,-0.08,-0.39
99352,-1.22,1.80,6.08,7.22,-0.16,-0.31,-0.64
99400,-1.14,1.13,6.17,7.73,0.01,-0.46,-0.69
99445,-1.20,0.36,6.50,6.94,0.08,-0.40,-0.43
99492,-1.19,0.07,6.42,6.57,0.07,0.06,0.08
99545,-1.17,0.81,6.88,7.35,-0.02,0.21,0.55
99596,-1.22,1.57,6.20,7.31,0.12,0.12,0.74
99641,-1.10,2.57,7.28,6.78,-0.07,0.35,0.68
99687,-1.13,2.68,6.17,6.26,-0.21,0.08,0.32
99732,-1.14,2.70,7.24,6.90,-0.49,-0.03,0.02
99777,-1.16,2.01,6.19,7.31,-0.44,-0.23,-0.21
99823,-1.20,1.34,4.59,7.62,0.04,-0.61,-0.23
99869,-1.34,1.52,6.35,6.39,0.07,0.17,0.06
99914,-1.30,1.63,6.86,6.52,-0.32,0.10,0.23
99963,-1.36,2.18,5.26,7.97,-0.01,-0.16,0.12
100009,-1.43,2.39,5.69,6.29,0.09,0.22,0.08
100062,-1.45,2.04,6.06,6.99,-0.16,-0.04,-0.04
100113,-1.42,1.72,5.88,7.35,-0.08,0.03,0.00
100158,-1.30,2.07,5.77,8.41,0.09,0.07,0.07
100204,-1.30,1.98,5.90,6.73,0.32,-0.03,0.03
100249,-1.25,1.97,6.22,6.88,0.16,0.08,0.07
100295,-1.24,1.91,6.37,5.60,0.01,0.02,0.05
100340,-1.31,2.50,6.07,7.81,-0.12,0.07,-0.03
100387,-1.20,2.24,6.37,6.86,0.01,-0.06,-0.19
100432,-1.16,1.78,5.99,7.14,0.04,-0.06,-0.22
100481,-1.19,1.58,6.51,6.56,0.00,0.03,-0.11
100526,-1.14,1.62,6.44,6.86,-0.07,0.02,0.02
100580,-1.14,2.23,5.83,7.34,0.29,0.06,0.01
100630,-1.16,1.52,7.65,4.75,-0.17,-0.00,-0.02
100676,-1.19,2.12,6.29,7.93,-0.29,-0.02,-0.06
100721,-1.18,1.70,6.27,7.22,-0.06,-0.08,-0.08
100767,-1.28,1.75,6.62,6.47,-0.19,-0.04,-0.03
100814,-1.18,1.76,6.11,7.25,-0.10,-0.01,0.01
100859,-1.25,1.80,6.30,6.92,-0.12,0.04,0.05
100905,-1.20,1.84,6.29,6.66,-0.03,0.03,0.04
100950,-1.23,2.03,6.19,7.57,-0.09,0.05,0.01
100998,-1.26,1.81,6.34,6.65,0.02,-0.00,-0.05
101044,-1.28,1.69,6.35,7.09,0.00,0.01,-0.02
101097,-1.24,1.66,6.32,7.01,0.03,0.03,0.06
101148,-1.09,1.82,6.51,6.33,-0.01,0.05,0.10
101193,-1.10,1.76,5.21,4.91,-0.29,0.06,0.08
101239,-1.18,2.05,5.30,8.51,-0.24,0.10,0.07
101285,-1.11,1.77,6.34,6.43,0.03,-0.03,0.03
101331,-1.24,2.00,6.18,7.69,-0.15,0.09,0.07
101376,-1.28,1.75,6.62,6.20,-0.04,-0.03,0.05
101422,-1.29,1.98,6.00,6.73,-0.35,0.11,0.08
101468,-1.34,2.32,5.92,9.32,-0.19,0.08,0.07
101513,-1.24,1.76,6.33,5.67,-0.08,0.07,0.05
101561,-1.22,1.36,7.28,3.26,-1.37,0.14,0.21
101615,-1.23,2.79,3.79,14.59,-0.05,-0.20,-0.14
101665,-1.25,2.41,5.83,10.37,0.15,-0.65,-0.12
101712,-1.26,1.75,6.83,6.70,0.26,0.17,0.08
101758,-1.30,2.14,6.09,7.84,-0.25,0.05,0.26
101803,-1.25,1.82,4.30,6.96,0.12,0.12,0.29
101849,-1.30,2.62,5.25,7.40,0.03,0.17,0.26
101894,-1.31,2.63,5.50,7.34,0.02,-0.05,0.08
101940,-1.30,2.46,5.68,6.88,-0.18,0.06,-0.01
101985,-1.23,2.55,5.16,8.57,-0.16,0.04,-0.12
102031,-1.16,2.29,5.41,7.87,0.05,-0.01,-0.17
102079,-1.19,2.19,5.29,8.03,0.26,0.03,-0.21
102133,-1.11,1.46,5.89,6.82,0.14,-0.08,-0.08
102184,-1.10,0.99,5.73,8.14,0.18,-0.07,0.36
102230,-1.05,1.53,5.94,7.14,0.28,0.09,0.80
102275,-1.06,2.35,5.78,7.22,0.27,0.26,1.00
102321,-1.08,3.28,5.70,6.98,0.23,0.29,0.94
102366,-1.11,3.09,5.67,6.09,-0.00,0.10,0.74
102412,-1.10,2.57,11.60,13.86,-1.05,0.56,0.89
102458,-1.11,5.27,-6.38,13.15,0.32,-2.03,0.92
102503,-1.06,2.62,6.09,8.31,0.56,2.97,0.89
102549,-1.13,4.40,4.15,7.34,0.33,-0.40,0.00
102597,-1.13,4.03,6.54,6.08,0.11,0.12,-0.37
102652,-1.18,2.92,6.39,7.63,-0.31,2.59,-0.38
102702,-1.22,-7.46,5.29,11.98,0.08,-1.40,-0.54
102748,-1.28,11.64,8.19,3.75,-0.13,-2.35,-1.60
102793,-1.30,7.21,9.83,9.43,1.73,-1.35,-1.93
102839,-1.32,4.45,7.96,9.38,2.46,-2.65,-0.68
102885,-1.28,1.86,8.27,8.59,-0.68,-3.75,-0.36
102930,-1.26,4.60,8.73,4.69,-1.78,-3.54,0.47
102976,-1.26,4.45,8.05,6.07,-0.37,-3.22,1.21
103022,-1.20,5.14,7.02,4.93,-1.29,-1.92,0.39
103067,-1.21,5.18,5.14,2.41,-0.82,-0.28,-0.82
103115,-1.21,5.82,6.22,4.71,-1.25,-0.17,0.19
103170,-1.19,4.89,6.06,2.51,2.22,0.94,-1.41
103221,-1.11,1.33,5.62,4.54,0.68,0.02,-1.81
103266,-1.07,8.96,6.07,5.14,-3.14,0.75,-0.53
103312,-1.11,3.54,8.12,3.82,-0.92,2.94,1.32
103357,-1.08,3.17,6.92,5.88,0.06,2.00,0.32
103403,-1.01,4.79,5.76,5.08,1.05,-1.20,-1.00
103448,-1.02,1.78,5.31,7.83,0.88,2.81,-3.06
103494,-0.98,1.07,8.23,5.47,-0.11,2.12,-1.94
103539,-0.99,1.74,5.17,8.27,1.04,-0.53,-0.15
103585,-1.07,2.32,9.47,2.85,-0.01,1.23,-0.42
103634,-0.99,1.02,6.84,5.20,-0.34,-0.16,-1.78
103688,-0.92,-0.30,5.91,5.12,0.37,0.04,-0.46
103738,-1.00,0.18,5.88,5.44,-0.45,-0.77,-0.23
103784,-0.92,-3.06,7.69,6.29,0.30,0.07,0.63
103830,-0.87,-0.67,6.57,4.63,0.43,-0.84,-0.23
103875,-0.94,2.43,7.09,5.03,0.85,-1.71,0.37
103921,-0.95,0.08,7.76,6.98,0.46,-0.57,-0.63
103966,-0.94,1.19,5.43,5.67,-2.24,-0.33,-0.79
104012,-0.88,1.67,6.79,6.05,-0.14,0.38,0.83
104059,-0.89,0.87,7.26,7.69,0.08,-0.76,0.99
104104,-0.88,2.16,6.84,7.24,-1.16,-0.93,0.08
104150,-0.95,1.99,6.80,6.55,-1.56,0.62,0.25
104205,-0.96,0.76,5.96,5.47,0.23,-0.42,0.36
104255,-0.91,1.04,6.92,6.45,0.58,-0.42,-0.57
104301,-0.97,1.24,6.49,7.07,0.84,-0.30,-0.40
104347,-0.89,0.31,6.68,7.83,0.27,0.04,-0.01
104392,-0.90,1.24,7.04,6.18,-0.16,0.03,0.05
104438,-0.90,1.91,6.67,5.79,0.02,-0.47,0.06
104484,-0.90,2.25,7.17,6.24,0.52,-0.04,0.30
104530,-0.95,1.77,6.76,5.83,0.09,-0.24,0.47
104575,-0.93,1.72,6.61,5.25,-0.71,-0.23,-0.21
104621,-1.00,2.59,6.22,6.51,-1.36,-1.09,0.28
104666,-1.08,1.61,8.05,7.26,-0.56,-0.01,-0.31
104722,-1.10,2.73,6.56,7.47,0.15,-0.44,-0.36
104772,-1.04,1.39,6.22,7.71,0.35,-0.09,-0.25
104818,-1.02,1.81,6.26,6.98,-0.69,0.30,-0.67
104863,-1.04,1.64,6.22,7.03,-0.92,0.48,-0.65
104910,-1.10,1.54,5.89,6.45,-0.59,0.37,-0.27
104955,-1.06,1.16,5.32,6.25,0.09,-0.03,0.10
105001,-0.96,1.49,6.27,7.10,0.46,0.07,0.53
105046,-0.95,2.10,6.40,6.90,0.14,0.11,0.27
105092,-0.97,1.67,6.42,6.68,0.03,-0.21,-0.03
105138,-0.94,1.84,6.47,6.76,-0.04,-0.07,-0.06
105183,-0.94,1.70,6.61,6.90,0.06,-0.12,0.10
105246,-0.97,1.77,5.84,7.11,-0.01,-0.26,0.07
105297,-0.95,1.28,6.06,6.90,0.03,-0.10,0.10
105343,-0.97,2.03,6.74,6.50,0.21,-0.35,0.32
105388,-0.95,2.31,6.76,6.49,0.44,-0.61,0.02
105434,-0.85,2.61,6.93,6.82,0.16,-0.45,-0.11
105479,-0.88,2.26,6.22,6.59,-0.11,-0.56,-0.05
105525,-0.82,1.99,6.64,7.13,0.12,-0.18,0.28
105571,-0.85,2.88,6.59,5.86,0.18,-0.39,0.66
105616,-0.89,3.11,6.90,5.46,0.10,-0.27,0.07
105662,-0.94,2.97,6.67,6.43,0.05,-0.20,0.35
105707,-0.93,3.32,8.16,6.97,-0.74,0.43,-0.50
105764,-0.85,3.08,6.45,6.53,-0.22,0.32,0.12
105815,-0.88,2.11,6.62,5.74,0.74,0.30,0.29
105860,-0.86,1.77,5.77,6.06,0.50,-0.67,-0.05
105906,-0.87,2.72,5.73,6.24,-0.21,-0.24,0.66
105951,-0.97,4.43,5.40,4.62,-0.19,-0.10,1.65
105997,-0.95,5.97,8.03,4.97,0.25,-0.69,0.85
106042,-0.94,5.44,5.59,6.18,-0.27,-0.74,0.73
106088,-0.84,5.06,3.07,5.77,-0.38,-0.59,2.19
106134,-0.95,5.45,9.25,6.85,-0.02,-0.47,1.62
106179,-0.96,5.31,5.63,6.56,-0.30,-0.04,-0.67
106225,-0.91,5.66,5.30,6.03,-0.73,0.86,-0.07
106278,-0.93,4.95,6.65,5.74,-0.18,1.08,1.13
106331,-1.00,5.36,5.08,4.98,0.37,0.84,-1.12
106377,-0.96,6.26,6.51,5.82,0.80,-0.41,-0.93
106423,-0.90,5.51,4.51,7.07,0.34,-0.54,-0.23
106468,-0.91,4.73,4.48,6.41,-0.88,-0.41,1.31
106514,-0.85,5.25,5.36,5.70,-0.71,0.07,0.50
106559,-0.94,5.60,6.63,5.31,0.56,-0.80,0.88
106605,-1.04,6.29,5.73,5.57,0.57,-0.51,-0.48
106650,-0.97,5.95,6.12,5.87,-0.28,0.27,-0.15
106696,-0.94,5.20,5.68,5.60,-0.37,0.27,-0.90
106742,-0.89,6.37,5.26,5.70,-0.76,-0.39,-0.46
106796,-0.97,4.63,5.77,7.54,-0.29,-0.55,0.13
106849,-0.93,6.79,4.68,5.60,-1.07,0.21,-0.25
106895,-0.90,6.12,5.67,5.34,-0.26,-0.03,0.19
106941,-0.92,6.14,6.01,5.80,-0.13,0.29,-0.38
106986,-0.83,4.16,3.44,4.66,-0.43,-1.20,-1.01
107032,-0.84,4.28,4.18,8.86,0.28,0.08,1.46
107077,-0.92,6.65,5.13,8.65,-0.96,1.62,-1.21
107123,-0.99,6.98,4.23,6.20,-1.26,-0.81,-0.13
107169,-0.93,6.39,4.87,4.65,1.74,-1.45,0.22
107215,-0.92,3.21,5.43,5.12,0.46,0.07,0.08
107261,-0.96,2.23,2.96,5.45,-0.21,-0.42,-1.13
107314,-0.97,5.98,6.49,6.41,0.16,-1.27,-1.63
107367,-0.97,3.80,7.70,7.58,0.43,0.08,-0.07
107413,-0.88,5.17,8.19,2.50,0.07,-1.45,-1.34
107459,-0.81,5.95,6.03,3.44,1.29,-0.46,-0.62
107504,-0.93,6.53,9.55,4.52,0.75,0.37,-0.25
107550,-0.90,5.31,7.67,2.59,0.88,-0.85,-0.82
107595,-0.89,5.30,7.65,4.55,2.27,-0.20,-0.36
107642,-0.92,3.24,7.70,5.01,-0.90,0.27,-0.51
107687,-0.90,4.22,7.99,0.82,-1.05,-0.02,-0.63
107733,-0.92,5.39,9.06,-0.75,3.22,-1.34,-0.16
107779,-0.82,5.47,6.99,2.83,0.12,-1.16,-1.37
107832,-0.81,5.93,9.32,-0.37,-0.62,-0.48,-0.49
107885,-0.88,3.76,9.13,4.37,0.46,0.10,-0.01
107931,-0.83,3.46,7.85,2.98,-1.04,-0.24,0.02
107977,-0.81,3.82,9.32,4.03,-0.20,0.39,0.32
108022,-0.83,3.38,8.97,0.11,-0.09,-0.41,-0.00
108069,-0.91,4.68,8.51,1.60,-0.12,-0.19,-0.26
108114,-0.96,3.54,7.66,1.98,-0.52,-0.22,-0.03
108160,-1.10,4.33,9.97,1.94,-0.24,-0.05,0.17
108206,-1.04,5.55,9.34,1.48,-0.28,0.26,-0.24
108251,-1.03,4.07,8.59,2.12,0.08,0.33,0.61
108297,-0.96,2.63,7.64,2.83,-0.41,-0.19,-0.17
108350,-1.03,3.85,8.87,3.68,-0.56,0.67,0.15
108403,-0.96,4.51,9.59,2.08,0.25,-0.13,-0.14
108449,-0.95,3.32,8.11,2.82,0.07,-0.02,0.30
108495,-0.97,4.30,9.20,3.27,-0.17,0.58,0.30
108541,-1.01,3.84,8.20,2.26,0.05,0.23,0.16
108587,-1.04,4.07,8.63,0.83,0.44,-0.49,-0.14
108632,-1.02,4.23,8.33,2.99,0.06,0.31,0.21
108678,-1.03,4.30,8.57,2.03,0.12,-0.39,-0.14
108723,-0.98,5.12,8.22,2.68,0.77,0.17,0.19
108769,-1.08,1.92,8.65,1.23,0.02,-0.17,0.40
108814,-1.08,5.86,8.98,1.71,0.60,0.40,-0.52
108868,-1.13,3.30,8.48,-0.46,2.50,-1.36,-1.00
108922,-1.08,3.28,6.75,-1.88,2.95,-1.60,0.28
108968,-1.02,3.58,9.35,0.33,0.61,-1.02,0.58
109013,-1.08,4.32,8.91,-2.33,0.27,0.23,0.13
109059,-1.02,4.99,8.78,-1.77,0.81,1.37,0.18
109104,-0.95,4.13,8.74,-2.58,-0.54,0.97,0.70
109150,-0.90,5.54,8.77,-1.03,-0.72,0.29,0.80
109195,-0.96,5.00,8.64,0.26,-0.14,0.98,-0.00
109241,-0.99,6.68,9.37,-3.05,0.66,-1.03,1.02
109287,-1.03,3.99,8.13,-1.19,0.47,0.03,0.25
109332,-1.08,4.77,8.19,-1.17,-1.22,0.79,1.99
109386,-1.04,7.17,7.48,-2.26,0.46,1.07,-1.35
109437,-1.02,6.45,9.72,0.57,-0.13,-0.11,0.98
109485,-1.03,3.69,8.03,-0.34,-0.92,0.50,0.60
109531,-0.95,6.68,9.17,0.37,0.69,1.04,0.17
109576,-0.91,6.25,7.52,-0.12,0.88,0.27,0.84
109622,-0.90,6.05,7.38,-2.67,-0.71,-0.08,-0.09
109667,-0.89,9.53,8.25,-1.71,-2.23,0.04,1.93
109713,-0.93,7.16,6.49,-0.98,1.16,-1.10,2.17
109759,-0.92,7.48,6.15,0.79,1.72,0.18,0.67
109804,-0.87,9.59,8.63,2.38,-2.03,1.49,1.66
109850,-0.94,7.16,2.84,0.97,-3.31,3.05,1.78
109904,-0.86,9.73,7.59,-2.12,-2.73,1.60,1.63
109955,-0.89,9.85,4.25,3.77,1.92,-3.38,-0.51
110003,-0.91,10.82,3.90,4.52,-0.35,1.26,0.10
110048,-0.88,8.45,5.50,0.38,-0.75,2.09,-0.30
110094,-0.91,9.45,4.05,-0.01,0.03,-1.68,-0.82
110140,-0.92,9.40,3.48,4.18,-0.16,-0.29,0.75
110185,-1.02,8.47,4.06,2.66,-0.78,0.89,1.44
110231,-0.90,8.88,3.34,3.77,-0.74,0.20,0.36
110276,-0.97,9.84,4.60,4.07,-0.75,1.35,0.54
110322,-0.98,7.74,3.91,3.04,-0.71,0.55,0.99
110367,-0.93,9.33,3.62,3.93,-0.09,-0.38,0.65
110422,-0.90,9.79,2.10,2.45,-1.07,0.75,0.49
110472,-0.89,9.43,2.15,4.07,-0.53,1.47,0.59
110521,-0.85,9.83,1.67,4.53,0.32,-2.57,0.76
110566,-0.92,8.47,0.57,6.41,0.58,1.14,1.40
110612,-0.99,8.43,3.05,2.91,-0.09,2.22,0.87
110657,-0.95,7.17,0.55,4.76,-1.41,2.94,0.76
110703,-1.04,8.85,0.15,5.00,-0.13,0.42,0.28
110748,-1.13,9.75,-0.40,7.32,-0.16,-0.43,0.83
110794,-1.06,9.38,-0.11,5.66,0.40,-0.74,0.42
110841,-1.13,7.16,0.48,7.18,0.17,-1.08,0.97
110886,-1.15,8.94,-0.36,6.11,-0.45,-1.12,1.06
110940,-1.10,8.16,-1.63,5.00,-1.45,1.05,1.64
110990,-1.04,7.33,-1.83,3.02,-0.17,-0.63,0.85
111039,-0.95,7.54,-3.61,5.28,0.09,0.15,1.07
111084,-0.92,8.56,-2.27,4.93,-0.14,0.40,-0.03
111130,-0.96,8.75,-4.08,6.51,-0.02,0.55,0.09
111175,-0.78,5.37,-2.79,3.08,-1.13,0.82,0.17
111221,-0.81,6.45,-3.32,4.14,-0.41,-1.37,-0.57
111268,-0.82,8.45,-5.20,6.51,-0.54,0.34,-0.07
111313,-0.81,9.90,-1.82,5.41,-0.53,0.41,-0.15
111359,-0.79,6.75,-5.19,4.98,-0.22,-0.33,-0.43
111404,-0.86,8.12,-3.52,5.77,0.63,-0.44,0.43
111458,-0.81,8.03,-2.10,3.08,-0.36,0.51,-0.27
111509,-0.87,9.67,-3.64,3.73,0.29,-0.35,-0.59
111557,-0.94,7.13,-2.95,5.90,-0.58,0.62,0.06
111603,-1.00,7.82,-3.22,5.48,-0.23,0.39,-0.18
111648,-0.98,8.14,-2.89,5.35,0.09,-0.36,-0.18
111695,-0.97,8.01,-4.30,4.97,-0.19,-0.05,-0.21
111740,-1.03,7.76,-2.42,5.44,-0.29,0.37,0.36
111786,-1.13,8.62,-3.45,5.44,-0.14,0.39,-0.33
111832,-1.02,9.48,-3.48,6.91,0.25,-0.18,0.18
111877,-1.02,7.64,-3.37,4.96,-0.12,0.37,0.17
111923,-0.94,8.06,-3.15,6.86,0.18,0.11,0.18
111977,-0.97,6.44,-3.57,4.50,-0.84,1.74,0.25
112027,-0.97,6.98,-3.54,6.03,-0.59,0.85,-0.48
112075,-1.03,7.16,-4.48,6.39,0.25,-0.03,-0.01
112122,-1.01,7.32,-3.85,8.10,-0.05,-0.68,0.04
112167,-0.97,6.86,-3.10,5.89,-1.40,0.04,0.08
112213,-0.96,6.86,-2.94,4.08,-0.16,0.15,-0.08
112259,-0.89,6.68,-3.69,4.93,0.36,-0.17,-0.44
112304,-0.87,6.06,-3.91,5.54,0.04,-0.47,-0.65
112350,-0.92,7.59,-3.92,7.41,-0.58,-0.12,-1.11
112395,-0.96,9.18,-2.22,5.66,-0.75,-0.16,-0.51
112441,-1.07,6.96,-4.86,4.83,0.10,0.48,0.02
112495,-1.07,7.98,-1.69,5.26,0.92,-0.24,-0.29
112545,-1.08,8.93,-2.60,5.36,0.75,-0.55,0.02
112595,-1.07,7.71,-3.06,7.47,-0.32,0.67,-0.29
112640,-1.04,7.94,-1.49,6.24,-0.98,0.23,-0.72
112686,-0.87,9.09,-4.85,5.53,-0.48,-0.35,-0.07
112731,-0.95,6.82,-0.96,5.67,-0.48,0.70,0.09
112777,-0.95,7.63,-2.86,4.50,0.15,-0.97,-0.08
112823,-1.01,7.62,-2.59,4.88,0.63,-1.03,-0.46
112868,-1.10,8.91,-1.48,4.26,0.36,-1.92,-0.87
112914,-1.10,9.09,-2.35,4.95,0.65,0.19,-0.17
112959,-1.10,8.73,-2.61,7.55,-0.20,1.12,0.70
113013,-1.13,8.19,-1.19,6.36,-0.98,0.67,0.16
113065,-1.09,6.69,-4.49,4.08,1.01,-0.85,-0.21
113113,-1.15,8.71,-1.24,5.05,1.24,-0.27,0.64
113158,-1.04,8.30,-0.24,7.66,0.24,0.18,1.04
113204,-0.99,8.35,-3.11,4.99,-0.26,-0.09,-0.22
113250,-1.01,7.52,-2.10,4.96,0.08,0.28,-0.00
113295,-1.08,9.94,-2.18,6.02,0.59,0.40,0.08
113341,-1.07,8.22,-0.40,5.48,-0.47,-0.69,0.05
113386,-1.04,7.76,-4.91,6.79,-0.42,0.80,-1.09
113432,-0.97,8.66,-2.08,4.00,-0.65,0.33,0.63
113478,-0.89,7.43,-0.78,2.91,0.70,-0.05,-0.11
113532,-0.89,8.03,-0.91,4.79,0.01,-1.06,-0.93
113583,-0.86,9.81,-2.67,5.74,-0.33,0.23,0.01
113631,-0.89,9.48,-2.48,4.86,-0.16,0.25,-0.15
113676,-1.00,9.19,-1.33,5.33,-0.20,-0.05,0.16
113722,-0.92,8.62,-1.47,4.39,0.11,-0.86,0.25
113768,-0.99,8.18,-1.80,3.74,0.39,-0.58,-0.00
113813,-1.09,9.04,-1.00,5.64,0.48,0.10,-0.05
113859,-1.08,8.85,-2.12,6.52,-0.28,0.19,-0.01
113904,-0.94,8.75,-1.47,4.61,-0.37,0.37,0.02
113950,-1.07,10.14,-0.92,0.81,0.64,-1.16,-0.22
113996,-1.09,9.34,-2.17,4.01,2.27,-0.63,0.09
114050,-1.10,10.12,-0.68,6.83,0.10,0.02,0.30
114101,-1.11,8.02,-0.83,4.16,-0.14,0.06,0.64
114149,-1.06,7.71,-0.63,4.90,-0.01,1.07,-1.58
114194,-1.02,11.35,0.29,2.44,0.70,0.26,-0.12
114240,-0.98,8.77,-1.83,4.93,0.87,0.16,2.34
114285,-0.97,5.30,1.13,6.51,-0.28,1.61,-0.08
114331,-0.96,10.37,-1.57,3.33,-0.72,-0.28,-0.69
114377,-1.01,9.71,-0.21,6.00,0.29,0.05,0.62
114422,-1.10,8.71,-0.99,5.06,-0.35,0.08,0.36
114469,-1.06,7.93,-1.64,5.38,-0.17,-0.48,-0.23
114515,-1.15,9.89,-0.21,3.85,-0.19,0.25,0.78
114568,-1.09,7.96,-1.70,6.22,-0.11,0.29,0.65
114619,-1.08,7.85,-2.51,4.84,-0.42,0.36,-0.22
114667,-1.05,7.86,-1.79,7.68,-0.90,0.48,-0.23
114713,-1.02,9.43,-1.29,4.91,-1.86,0.12,-0.59
114758,-1.01,9.05,-1.41,3.64,-0.88,0.55,-0.06
114804,-1.01,6.58,-1.70,3.99,0.38,-0.45,-0.64
114849,-1.00,10.00,-2.04,3.94,1.24,-0.37,0.44
114896,-0.93,7.21,-1.54,6.54,0.55,-0.05,0.70
114942,-1.03,8.77,-1.65,5.10,-0.12,0.24,0.29
114987,-0.91,8.55,-2.58,5.28,-0.05,-0.17,0.01
115033,-0.91,8.84,-2.75,5.28,-0.14,-0.30,0.69
115087,-0.95,8.56,-2.45,5.01,0.00,-0.05,0.22
115137,-0.96,7.92,-2.15,4.87,-0.06,-0.20,0.91
115185,-1.09,10.13,-1.84,5.20,-0.00,0.07,-0.09
115231,-1.05,8.28,-3.46,5.24,-0.49,0.20,0.93
115278,-1.06,7.93,-2.72,4.16,-0.08,0.23,0.71
115323,-1.10,8.51,-3.09,4.13,-0.49,-0.42,0.64
115369,-1.09,8.21,-4.82,5.47,-0.49,0.23,1.96
115414,-1.17,6.36,-4.10,4.28,-0.59,0.61,1.06
115460,-1.15,9.04,-3.45,4.69,-0.59,-0.11,0.07
115506,-1.12,9.39,-5.09,6.05,-0.41,0.39,0.41
115551,-1.11,6.83,-6.35,4.40,-0.65,0.43,0.72
115605,-1.11,6.09,-7.13,3.06,-0.45,-0.23,0.57
115655,-1.21,7.30,-5.13,5.15,-0.26,0.49,0.67
115705,-1.15,7.75,-5.30,3.25,-0.18,0.31,0.66
115750,-1.20,6.55,-7.09,2.25,-0.34,-1.30,0.60
115796,-1.20,5.58,-6.29,4.18,0.71,-1.11,0.09
115841,-1.20,7.66,-5.81,5.32,0.07,-0.26,-0.14
115887,-1.13,8.53,-6.91,4.16,-0.55,-0.08,0.49
115933,-1.08,4.45,-7.04,2.18,-0.31,0.53,0.71
115978,-1.09,6.68,-6.47,4.19,0.13,-0.32,-0.02
116024,-1.13,5.45,-7.37,3.52,0.18,-0.27,0.17
116070,-1.18,7.78,-5.63,4.74,0.22,-0.36,0.11
116123,-1.18,6.13,-7.39,4.42,-0.35,0.14,0.28
116175,-1.04,5.84,-6.16,2.45,-0.29,-0.12,0.20
116223,-1.02,6.21,-7.55,3.33,0.13,-0.32,-0.22
116269,-0.98,6.62,-6.69,3.67,0.14,0.18,0.50
116314,-0.99,5.52,-6.49,3.42,-0.40,0.36,0.11
116360,-0.90,7.08,-7.06,1.45,-0.86,-0.33,-0.23
116405,-0.96,6.23,-7.67,3.02,-0.39,0.11,-0.25
116451,-0.95,6.87,-7.05,3.68,-0.17,0.08,-0.46
116497,-0.92,8.11,-6.43,3.35,0.21,0.60,0.76
116542,-0.90,5.93,-7.09,2.91,-0.72,0.31,0.56
116588,-0.91,6.16,-8.18,1.58,-0.42,-0.28,0.28
116643,-0.98,6.23,-8.08,2.19,0.05,-0.02,0.27
116693,-1.02,6.11,-7.62,2.91,0.06,0.11,0.22
116741,-1.01,5.29,-7.90,3.65,0.28,0.63,0.35
116787,-1.04,5.27,-7.57,2.99,-0.08,0.32,0.09
116832,-1.05,5.97,-7.58,3.39,-0.02,0.04,0.16
116878,-1.09,5.86,-7.59,2.98,-0.20,0.12,0.17
116923,-1.05,5.43,-7.78,3.38,-0.10,0.18,0.48
116969,-0.95,6.34,-10.54,2.92,0.31,0.85,0.31
117015,-1.08,4.18,-5.79,3.70,-0.12,-0.14,0.84
117060,-0.95,4.42,-7.47,3.39,-0.04,-0.22,0.62
117106,-0.99,4.32,-7.62,3.25,0.02,-0.34,0.12
117161,-0.99,4.41,-8.27,3.34,0.00,0.02,-0.05
117212,-1.08,4.91,-8.00,3.16,-0.48,0.34,0.39
117260,-0.98,4.21,-8.45,2.56,-0.22,-0.01,0.40
117306,-0.95,5.66,-9.50,3.10,-0.05,0.37,0.31
117351,-1.04,3.06,-9.04,2.99,-0.27,0.43,0.33
117397,-0.95,5.30,-9.36,3.12,-0.51,0.22,0.25
117442,-0.99,4.74,-7.51,2.88,-0.69,0.34,0.55
117488,-0.92,4.01,-7.88,3.09,-0.91,1.02,0.29
117533,-0.92,3.04,-7.84,1.98,-0.57,0.41,-0.01
117579,-0.88,2.75,-8.53,4.01,-0.69,1.01,-0.08
117626,-0.95,6.12,-9.62,1.16,-1.42,-0.60,0.05
117679,-0.92,2.34,-13.09,-0.98,-0.35,-0.45,0.82
117730,-1.00,2.78,-9.84,0.59,0.59,-0.37,0.47
117778,-0.98,3.75,-9.42,2.64,0.45,0.08,-0.47
117823,-0.94,4.24,-9.52,0.49,0.29,0.05,0.07
117869,-0.93,4.64,-7.22,7.43,-0.05,-1.57,0.61
117915,-0.92,3.07,-9.24,1.74,-1.59,-2.28,0.95
117960,-0.97,-0.46,-9.92,-1.37,-1.04,-0.93,0.99
118006,-1.06,-0.02,-10.23,-2.09,-0.48,-0.06,0.07
118053,-1.03,2.23,-9.65,-0.25,0.12,0.55,-0.29
118098,-1.04,4.27,-9.61,0.36,0.07,0.74,-0.07
118144,-0.98,4.12,-9.70,3.94,-0.38,2.15,0.78
118198,-1.01,1.00,-8.70,1.85,-2.09,1.19,0.89
118248,-0.92,2.58,-9.47,-4.14,-1.75,-1.34,-0.48
118296,-0.89,2.05,-10.15,-5.34,0.48,0.61,0.99
118342,-0.92,-1.71,-9.52,-0.04,1.25,1.64,0.49
118387,-0.90,1.81,-9.88,0.41,0.44,0.66,-0.09
118433,-0.93,0.49,-10.27,-0.37,-0.09,0.14,-0.10
118480,-0.94,3.11,-9.51,0.07,-0.37,1.35,0.23
118525,-0.95,1.67,-9.97,0.14,-0.93,1.15,0.47
118571,-0.93,1.09,-9.84,-1.80,-0.78,1.83,0.99
118616,-0.87,-0.24,-9.70,-2.24,0.50,-0.84,-0.10
118662,-0.88,1.26,-9.96,-0.34,0.96,-0.75,-0.45
118716,-0.87,1.78,-9.70,0.81,0.07,-0.46,-0.20
118766,-0.93,0.16,-9.83,-0.57,0.30,-0.27,0.08
118815,-0.95,1.54,-10.12,-0.42,0.49,0.30,-0.05
118860,-0.94,0.18,-9.76,-0.13,0.79,-0.53,-0.05
118907,-0.91,1.21,-10.26,-0.54,0.78,-0.50,-0.00
118953,-0.91,0.42,-9.63,0.26,0.92,-0.49,-0.27
118998,-0.99,3.20,-9.70,2.29,1.01,-0.03,-0.28
119044,-0.98,2.77,-8.34,7.95,-1.69,-1.51,0.44
119089,-1.04,-1.63,-10.15,-3.16,-0.80,-1.49,-0.76
119135,-0.92,4.99,-8.34,1.22,0.33,-0.59,0.61
119181,-0.93,1.54,-9.99,0.59,0.39,0.14,0.36
119235,-0.97,0.38,-9.39,1.43,0.41,0.24,0.45
119285,-0.90,-0.93,-9.22,4.03,-0.28,-1.35,-0.39
119334,-0.91,1.92,-11.97,-0.03,-0.57,-1.07,-0.96
119380,-0.94,4.26,-9.43,-0.87,-0.04,0.53,-0.35
119426,-1.02,1.30,-8.48,0.93,0.43,-1.16,0.26
119471,-1.04,2.13,-10.07,1.13,0.20,-0.29,0.55
119517,-1.00,1.67,-9.69,2.28,0.37,-0.55,-0.16
119562,-1.05,4.23,-9.17,1.62,0.00,-0.35,-0.41
119608,-1.04,2.13,-10.62,0.54,-0.12,-0.43,0.11
119654,-1.09,2.14,-9.91,0.14,0.35,-0.26,0.21
119699,-1.10,3.04,-9.27,1.92,0.29,0.07,-0.05
119753,-1.04,1.63,-9.77,1.99,0.38,-0.42,0.03
119804,-1.00,2.35,-9.46,1.89,0.21,-0.35,0.19
119853,-0.98,2.36,-9.44,1.93,-0.34,-0.19,-0.34
119898,-1.05,2.78,-9.58,0.96,0.13,-0.38,0.06
119944,-1.10,2.20,-9.81,1.34,0.40,-0.50,0.59
119989,-1.07,3.38,-8.90,2.46,0.34,0.07,-0.07
120035,-1.05,2.84,-8.78,3.24,-0.36,-0.17,0.17
120081,-0.94,3.72,-9.38,1.01,-0.35,-0.52,-0.01
120126,-0.89,2.73,-10.07,0.67,-0.22,0.06,0.32
120172,-0.87,2.62,-9.12,2.20,0.17,0.01,-0.10
120217,-0.97,1.62,-10.01,1.92,0.01,0.21,-0.38
120272,-0.96,1.81,-10.41,1.47,-0.24,-0.01,-0.66
120323,-0.87,3.26,-9.51,1.56,0.42,-0.09,-0.26
120371,-0.96,3.49,-9.25,1.25,0.31,-0.24,0.11
120417,-0.98,3.30,-9.46,1.02,0.58,-0.29,0.06
120462,-1.03,3.44,-8.64,3.01,0.56,-0.46,0.64
120508,-1.09,2.76,-9.08,2.77,-0.01,-0.23,0.70
120553,-1.09,2.38,-8.18,3.06,-0.26,0.93,0.90
120599,-1.12,2.29,-8.87,2.49,-0.15,-0.06,0.57
120644,-1.02,0.67,-9.12,2.99,-0.42,0.06,0.88
120690,-1.01,2.35,-10.10,1.70,-0.39,0.12,-0.12
120736,-0.93,1.31,-9.48,2.38,-0.41,0.63,0.62
120791,-0.91,1.95,-9.93,1.06,-0.02,0.25,0.38
120841,-0.89,-0.22,-9.86,2.87,-0.34,0.18,0.17
120889,-0.97,1.08,-9.82,2.32,-0.99,0.03,-0.19
120935,-0.99,1.81,-9.79,-0.13,-0.74,-0.27,-0.29
120980,-1.00,1.45,-9.96,-0.45,0.33,0.61,0.36
121026,-0.96,1.24,-9.90,1.44,0.27,-0.20,0.05
121072,-0.96,1.91,-9.56,0.74,0.72,0.17,0.51
121117,-1.03,0.50,-9.70,1.65,0.77,0.13,0.23
121163,-0.99,1.09,-9.50,2.28,0.69,0.46,0.14
121209,-1.01,0.61,-9.57,2.45,0.59,0.52,0.35
121255,-0.98,1.40,-9.37,2.88,0.53,0.13,0.26
121309,-0.97,-0.09,-9.54,3.12,0.26,0.12,0.03
121359,-1.06,0.10,-9.24,3.63,0.06,0.04,0.06
121407,-1.01,-0.30,-8.94,4.66,-0.27,0.10,-0.12
121453,-1.05,1.19,-9.75,2.26,-0.42,0.15,-0.20
121498,-1.01,0.48,-9.09,3.09,-0.38,0.46,-0.69
121544,-0.99,0.68,-10.06,0.80,0.14,0.34,0.05
121589,-0.98,0.88,-10.06,1.37,0.81,0.50,-0.07
121636,-0.93,-0.49,-9.54,3.16,1.53,0.63,-0.47
121682,-0.94,1.44,-7.46,5.38,0.75,1.15,-0.74
121727,-0.99,0.98,-9.13,3.74,0.57,0.29,-0.14
121773,-1.03,1.79,-8.31,3.48,1.17,0.79,0.40
121827,-1.06,1.65,-6.50,4.16,1.86,1.40,1.02
121877,-1.00,-1.35,-6.91,4.86,2.00,1.88,1.58
121925,-1.01,-1.64,-5.94,6.73,2.32,1.34,1.70
121971,-0.99,-4.62,-5.62,7.92,1.90,1.92,1.45
122016,-0.93,-5.01,-3.74,9.92,1.49,0.39,1.52
122063,-1.00,-6.84,-5.07,8.86,0.84,-0.33,0.35
122108,-1.06,-4.44,-3.27,10.66,-0.37,-1.46,-0.61
122154,-1.07,-2.61,-3.49,7.46,-1.42,-1.94,-0.98
122200,-1.06,-0.77,-4.58,6.12,-1.02,0.24,-0.63
122246,-1.05,-2.03,-5.31,7.47,-0.19,-0.76,0.49
122291,-1.11,-1.19,-5.34,8.18,-0.77,-1.47,0.23
122345,-1.06,-1.03,-6.68,6.34,-0.58,-0.46,0.10
122395,-1.08,0.19,-4.80,6.99,0.48,0.08,0.58
122443,-1.02,-1.40,-5.04,7.35,0.40,-0.06,0.20
122490,-1.03,-2.59,-5.54,8.25,0.02,0.46,-0.15
122536,-1.00,-2.06,-5.19,9.16,-0.83,0.19,-0.77
122581,-0.99,-1.59,-4.72,9.45,-1.52,-0.26,-0.49
122627,-1.02,-0.37,-5.99,7.95,-1.82,-0.61,-0.39
122673,-1.14,0.30,-8.03,4.77,-1.47,0.05,0.07
122718,-1.09,-0.23,-8.18,5.79,-1.32,0.57,-0.70
122764,-1.08,0.26,-5.56,6.47,-1.92,0.29,-0.65
122810,-1.01,-1.15,-7.87,5.10,-2.69,0.78,-0.87
122864,-1.04,0.09,-10.15,2.21,-2.08,-0.07,-0.63
122915,-1.02,0.19,-10.20,1.87,-1.10,0.20,-0.41
122963,-1.08,0.83,-9.09,1.72,-0.55,0.29,-0.40
123009,-1.18,0.18,-8.75,2.69,-0.41,0.08,-0.11
123055,-1.13,1.24,-8.61,2.41,-0.62,-0.72,0.57
123100,-1.04,-0.56,-11.63,0.44,-1.07,0.03,-0.59
123146,-1.06,1.61,-6.84,0.29,-0.63,-0.05,-0.24
123192,-1.11,0.98,-9.29,0.30,-0.53,-0.36,0.53
123237,-1.05,0.38,-10.56,0.17,0.09,0.10,0.17
123283,-1.02,0.88,-10.19,0.02,0.03,0.20,-0.06
123328,-1.03,0.17,-9.49,1.31,0.08,0.05,0.01
123382,-0.94,-0.07,-10.13,0.80,-0.12,-0.33,0.04
123436,-0.97,1.49,-9.78,-1.21,1.04,-0.12,0.44
123482,-1.00,0.42,-9.73,2.10,1.25,1.26,0.15
123527,-1.03,-0.17,-9.07,3.99,0.37,0.05,0.57
123573,-0.99,-1.08,-9.64,2.99,-0.11,-0.27,0.22
123619,-1.02,-0.23,-9.32,3.11,-0.66,-0.07,-0.64
123664,-0.91,1.92,-9.92,0.13,-0.78,-0.23,-0.34
123710,-0.94,1.20,-9.72,-0.16,0.30,-0.15,0.45
123755,-0.93,-0.89,-9.39,3.72,0.06,-0.16,0.05
123801,-0.99,-0.80,-9.46,3.28,-0.98,-0.47,-0.27
123847,-1.02,0.37,-9.82,0.60,-1.11,-0.90,-0.43
123902,-1.05,1.72,-9.47,0.22,0.21,-0.44,-0.05
123955,-1.01,0.18,-9.31,2.30,-0.40,-0.29,0.01
124000,-1.03,1.81,-9.45,1.94,-1.18,-0.14,0.48
124046,-0.98,0.35,-10.49,-2.95,-0.17,0.00,-0.29
124092,-0.92,1.52,-10.07,-0.62,0.81,-0.00,0.03
124137,-0.91,-0.48,-9.51,3.37,0.15,0.36,-0.13
124183,-0.97,0.36,-9.96,1.22,-0.82,0.12,-0.23
124228,-0.94,1.69,-9.88,-1.33,-0.26,-0.04,0.03
124274,-0.90,-0.08,-9.99,-0.07,0.17,0.00,0.28
124320,-0.97,0.57,-9.86,0.96,-0.12,-0.03,-0.05
124366,-1.00,0.79,-9.92,0.67,-0.17,0.17,-0.11
124420,-1.02,0.87,-9.94,0.44,-0.29,0.31,-0.03
124473,-0.97,1.08,-10.06,-0.58,-1.10,0.29,0.06
124519,-0.87,0.92,-9.93,-1.45,-0.11,0.01,0.00
124564,-0.93,0.11,-9.89,-0.72,0.19,-0.07,0.21
124610,-0.93,1.36,-9.77,-0.19,0.21,0.07,-0.52
124656,-1.08,0.59,-10.31,-1.20,0.42,-0.23,0.11
124701,-1.01,-0.51,-9.91,0.60,0.48,-0.13,-0.28
124747,-0.97,1.73,-9.92,0.45,0.73,0.27,-0.38
124793,-0.91,-0.41,-9.93,0.47,-0.41,-0.01,-0.22
124839,-0.92,2.00,-9.86,-0.08,0.01,0.12,-0.19
124885,-0.91,1.49,-9.96,0.10,0.04,0.04,-0.22
124938,-0.86,2.00,-9.72,1.35,0.12,0.11,-0.22
124991,-0.86,3.82,-9.61,-1.74,-1.04,0.07,0.81
125037,-0.84,0.63,-9.60,0.72,-0.29,-0.12,0.29
125083,-0.86,-0.10,-10.33,-0.24,-0.23,-0.05,-0.01
125128,-0.89,0.69,-9.64,2.25,-0.07,-0.00,-0.24
125174,-0.97,0.88,-10.01,-0.30,0.36,0.09,0.02
125221,-1.00,1.02,-10.01,0.20,-0.09,0.09,0.05
125266,-0.99,0.07,-10.20,0.62,-0.38,-0.12,0.42
125312,-0.99,1.44,-9.98,-0.38,-0.17,0.04,0.26
125357,-1.05,0.25,-9.94,0.43,-0.12,0.07,0.05
125403,-1.02,1.31,-9.84,0.33,-0.07,-0.04,-0.32
125457,-1.09,0.33,-10.08,-0.20,-0.46,-0.11,-0.28
125510,-1.09,-0.19,-10.29,-0.48,-0.15,0.08,0.23
125556,-1.03,1.51,-9.94,-0.32,-0.08,-0.22,0.21
125601,-1.01,1.88,-9.90,-0.84,-0.23,-0.10,0.10
125648,-1.04,0.87,-10.11,-0.50,0.12,-0.05,0.04
125694,-1.00,1.19,-9.90,0.42,-0.15,0.09,0.20
125739,-0.97,1.18,-10.49,-1.25,-0.08,0.17,0.24
125785,-1.01,0.78,-10.04,-0.45,0.43,0.40,0.23
125830,-0.96,-0.01,-9.64,0.84,0.11,-0.01,0.05
125876,-0.98,0.95,-9.48,-0.41,-0.27,-0.30,-0.22
125922,-0.96,0.34,-10.16,-0.18,-0.22,-0.63,-0.17
125978,-0.95,0.98,-10.68,-2.01,0.19,-0.09,0.21
126030,-0.98,1.24,-10.11,-0.35,-0.16,0.26,-0.12
126075,-0.98,1.70,-10.63,-1.84,0.96,0.87,0.18
126121,-0.91,1.74,-9.57,-0.02,1.13,0.89,-0.08
126166,-0.98,-0.90,-9.47,1.63,-0.17,0.68,-0.36
126212,-1.06,0.12,-10.13,1.26,0.22,-0.20,0.24
126258,-1.08,2.17,-10.69,-0.68,0.37,0.58,0.43
126303,-1.15,-0.20,-8.15,-7.16,1.61,1.55,0.02
126349,-1.06,0.86,-8.33,2.49,1.25,1.49,-0.14
126395,-1.07,-2.49,-8.64,4.34,0.22,-0.15,0.18
126440,-1.02,0.39,-10.01,4.59,-1.42,-0.39,0.31
126496,-1.06,1.99,-10.38,-0.18,-0.38,0.02,0.36
126547,-1.06,0.45,-10.29,1.02,0.36,0.70,-0.07
126593,-0.90,0.04,-9.82,1.98,0.46,-0.55,0.05
126638,-0.94,1.43,-9.46,2.62,0.88,0.46,0.05
126684,-1.00,0.14,-9.19,3.05,0.31,0.30,-0.10
126729,-0.98,-0.32,-9.23,3.40,0.17,0.12,-0.11
126775,-0.98,-0.74,-9.55,1.99,0.18,0.09,0.20
126820,-1.01,0.25,-9.01,3.15,0.41,0.48,0.58
126866,-0.97,-0.45,-9.14,3.39,0.21,0.18,0.11
126912,-0.96,-0.99,-8.81,4.03,-0.02,0.24,-0.42
126957,-1.02,-0.20,-9.41,3.65,-0.62,-0.26,-0.42
127014,-1.00,0.44,-9.16,3.00,-0.74,-0.11,-0.15
127064,-1.05,0.64,-9.41,2.55,-0.72,-0.03,-0.03
127110,-1.00,0.57,-10.09,1.44,-0.61,0.16,-0.13
